workerid,proliferate.condition.x,block,content,question_type,response,rt,short_trigger,slide_number_in_experiment,trigger,trigger_class,error.x,proliferate.condition.y,age,american,comments,gender,language,error.y,trial
3531,default,block1,owen,ai,0.39,11827,discover,5,discover,C,NA,default,18,Yes,NA,Female,English,NA,1
3531,default,block1,jon,ai,0.39,10640,confirm,6,confirm,C,NA,default,18,Yes,NA,Female,English,NA,2
3531,default,block1,mary,ai,0.39,5899,suggest,7,suggest,C,NA,default,18,Yes,NA,Female,English,NA,3
3531,default,block1,josh,ai,0.30000000000000004,9262,see,8,see,C,NA,default,18,Yes,NA,Female,English,NA,4
3531,default,block1,danny,ai,0.19999999999999996,8658,pretend,9,pretend,C,NA,default,18,Yes,NA,Female,English,NA,5
3531,default,block1,tony,ai,0.38,8757,say,10,say,C,NA,default,18,Yes,NA,Female,English,NA,6
3531,default,block1,josie,ai,0.69,9195,hear,11,hear,C,NA,default,18,Yes,NA,Female,English,NA,7
3531,default,block1,muffins,ai,0.79,8674,MC,12,MC,MC,NA,default,18,Yes,NA,Female,English,NA,8
3531,default,block1,hat,ai,0.39,56426,MC,13,MC,MC,NA,default,18,Yes,NA,Female,English,NA,9
3531,default,block1,sophia,ai,0.44999999999999996,6233,think,14,think,C,NA,default,18,Yes,NA,Female,English,NA,10
3531,default,block1,grace,ai,0.6799999999999999,6736,prove,15,prove,C,NA,default,18,Yes,NA,Female,English,NA,11
3531,default,block1,olivia,ai,0.48,8912,be_right,16,be_right,C,NA,default,18,Yes,NA,Female,English,NA,12
3531,default,block1,jayden,ai,0.4,9338,confess,17,confess,C,NA,default,18,Yes,NA,Female,English,NA,13
3531,default,block1,emily,ai,0.6599999999999999,7005,admit,18,admit,C,NA,default,18,Yes,NA,Female,English,NA,14
3531,default,block1,zoe,ai,0.36,8214,establish,19,establish,C,NA,default,18,Yes,NA,Female,English,NA,15
3531,default,block1,emma,ai,0.08999999999999997,11165,inform,20,inform,C,NA,default,18,Yes,NA,Female,English,NA,16
3531,default,block1,isabella,ai,0.6,6483,demonstrate,21,demonstrate,C,NA,default,18,Yes,NA,Female,English,NA,17
3531,default,block1,charley,ai,0.62,6421,announce,22,announce,C,NA,default,18,Yes,NA,Female,English,NA,18
3531,default,block1,frank,ai,0.20999999999999996,12234,be_annoyed,23,be_annoyed,C,NA,default,18,Yes,NA,Female,English,NA,19
3531,default,block1,mia,ai,0.21999999999999997,7954,acknowledge,24,acknowledge,C,NA,default,18,Yes,NA,Female,English,NA,20
3531,default,block1,ballet,ai,0.15000000000000002,6376,MC,25,MC,MC,NA,default,18,Yes,NA,Female,English,NA,21
3531,default,block1,jackson,ai,0.51,13110,know,26,know,C,NA,default,18,Yes,NA,Female,English,NA,22
3531,default,block1,julian,ai,0.22999999999999998,8869,reveal,27,reveal,C,NA,default,18,Yes,NA,Female,English,NA,23
3531,default,block1,pizza,ai,0.17000000000000004,5514,MC,28,MC,MC,NA,default,18,Yes,NA,Female,English,NA,24
3531,default,block1,garage,ai,0.19999999999999996,9858,MC,29,MC,MC,NA,default,18,Yes,NA,Female,English,NA,25
3531,default,block1,kids,ai,0.09999999999999998,4839,MC,30,MC,MC,NA,default,18,Yes,NA,Female,English,NA,26
3531,default,block2,tony,projective,0.18,10778,say,32,say,C,NA,default,18,Yes,NA,Female,English,NA,27
3531,default,block2,kids,projective,0.96,5961,MC,33,MC,MC,NA,default,18,Yes,NA,Female,English,NA,28
3531,default,block2,emily,projective,0.28,8642,admit,34,admit,C,NA,default,18,Yes,NA,Female,English,NA,29
3531,default,block2,mary,projective,0.15,11885,suggest,35,suggest,C,NA,default,18,Yes,NA,Female,English,NA,30
3531,default,block2,mia,projective,0.62,5510,acknowledge,36,acknowledge,C,NA,default,18,Yes,NA,Female,English,NA,31
3531,default,block2,hat,projective,0.97,6667,MC,37,MC,MC,NA,default,18,Yes,NA,Female,English,NA,32
3531,default,block2,josh,projective,0.95,6023,see,38,see,C,NA,default,18,Yes,NA,Female,English,NA,33
3531,default,block2,jon,projective,0.3,4781,confirm,39,confirm,C,NA,default,18,Yes,NA,Female,English,NA,34
3531,default,block2,jayden,projective,0.16,4300,confess,40,confess,C,NA,default,18,Yes,NA,Female,English,NA,35
3531,default,block2,josie,projective,0.9,6422,hear,41,hear,C,NA,default,18,Yes,NA,Female,English,NA,36
3531,default,block2,owen,projective,0.95,4733,discover,42,discover,C,NA,default,18,Yes,NA,Female,English,NA,37
3531,default,block2,julian,projective,0.92,8499,reveal,43,reveal,C,NA,default,18,Yes,NA,Female,English,NA,38
3531,default,block2,emma,projective,0.86,6809,inform,44,inform,C,NA,default,18,Yes,NA,Female,English,NA,39
3531,default,block2,olivia,projective,0.13,5234,be_right,45,be_right,C,NA,default,18,Yes,NA,Female,English,NA,40
3531,default,block2,jackson,projective,0.83,5827,know,46,know,C,NA,default,18,Yes,NA,Female,English,NA,41
3531,default,block2,frank,projective,0.92,5084,be_annoyed,47,be_annoyed,C,NA,default,18,Yes,NA,Female,English,NA,42
3531,default,block2,sophia,projective,0.84,8459,think,48,think,C,NA,default,18,Yes,NA,Female,English,NA,43
3531,default,block2,isabella,projective,0.24,5843,demonstrate,49,demonstrate,C,NA,default,18,Yes,NA,Female,English,NA,44
3531,default,block2,zoe,projective,0.48,6523,establish,50,establish,C,NA,default,18,Yes,NA,Female,English,NA,45
3531,default,block2,grace,projective,0.28,5620,prove,51,prove,C,NA,default,18,Yes,NA,Female,English,NA,46
3531,default,block2,danny,projective,0.88,6369,pretend,52,pretend,C,NA,default,18,Yes,NA,Female,English,NA,47
3531,default,block2,ballet,projective,0.97,5420,MC,53,MC,MC,NA,default,18,Yes,NA,Female,English,NA,48
3531,default,block2,muffins,projective,0.94,4202,MC,54,MC,MC,NA,default,18,Yes,NA,Female,English,NA,49
3531,default,block2,charley,projective,0.68,9197,announce,55,announce,C,NA,default,18,Yes,NA,Female,English,NA,50
3531,default,block2,garage,projective,0.98,4480,MC,56,MC,MC,NA,default,18,Yes,NA,Female,English,NA,51
3531,default,block2,pizza,projective,0.93,3314,MC,57,MC,MC,NA,default,18,Yes,NA,Female,English,NA,52
3454,default,block1,hat,projective,1,23508,MC,5,MC,MC,NA,default,34,Yes,NA,Male,English,NA,1
3454,default,block1,jackson,projective,0.5,18682,be_annoyed,6,be_annoyed,C,NA,default,34,Yes,NA,Male,English,NA,2
3454,default,block1,muffins,projective,0.99,7331,MC,7,MC,MC,NA,default,34,Yes,NA,Male,English,NA,3
3454,default,block1,grace,projective,0.45,9844,discover,8,discover,C,NA,default,34,Yes,NA,Male,English,NA,4
3454,default,block1,sophia,projective,0.44,6781,announce,9,announce,C,NA,default,34,Yes,NA,Male,English,NA,5
3454,default,block1,mary,projective,0.48,7527,hear,10,hear,C,NA,default,34,Yes,NA,Male,English,NA,6
3454,default,block1,isabella,projective,0.47,22933,demonstrate,11,demonstrate,C,NA,default,34,Yes,NA,Male,English,NA,7
3454,default,block1,ballet,projective,0.98,9677,MC,12,MC,MC,NA,default,34,Yes,NA,Male,English,NA,8
3454,default,block1,josh,projective,0.44,19812,pretend,13,pretend,C,NA,default,34,Yes,NA,Male,English,NA,9
3454,default,block1,kids,projective,0.98,10142,MC,14,MC,MC,NA,default,34,Yes,NA,Male,English,NA,10
3454,default,block1,josie,projective,0.27,17601,inform,15,inform,C,NA,default,34,Yes,NA,Male,English,NA,11
3454,default,block1,garage,projective,1,10688,MC,16,MC,MC,NA,default,34,Yes,NA,Male,English,NA,12
3454,default,block1,jon,projective,0.35,16356,confirm,17,confirm,C,NA,default,34,Yes,NA,Male,English,NA,13
3454,default,block1,zoe,projective,0.31,23464,acknowledge,18,acknowledge,C,NA,default,34,Yes,NA,Male,English,NA,14
3454,default,block1,julian,projective,0.48,6759,establish,19,establish,C,NA,default,34,Yes,NA,Male,English,NA,15
3454,default,block1,owen,projective,0.5,6191,admit,20,admit,C,NA,default,34,Yes,NA,Male,English,NA,16
3454,default,block1,jayden,projective,0.31,4812,know,21,know,C,NA,default,34,Yes,NA,Male,English,NA,17
3454,default,block1,charley,projective,0.47,5628,say,22,say,C,NA,default,34,Yes,NA,Male,English,NA,18
3454,default,block1,emily,projective,0.41,42787,prove,23,prove,C,NA,default,34,Yes,NA,Male,English,NA,19
3454,default,block1,pizza,projective,0.97,12583,MC,24,MC,MC,NA,default,34,Yes,NA,Male,English,NA,20
3454,default,block1,frank,projective,0.4,7050,see,25,see,C,NA,default,34,Yes,NA,Male,English,NA,21
3454,default,block1,olivia,projective,0.32,6699,think,26,think,C,NA,default,34,Yes,NA,Male,English,NA,22
3454,default,block1,mia,projective,0.43,5234,suggest,27,suggest,C,NA,default,34,Yes,NA,Male,English,NA,23
3454,default,block1,emma,projective,0.41,5993,be_right,28,be_right,C,NA,default,34,Yes,NA,Male,English,NA,24
3454,default,block1,tony,projective,0.38,4735,confess,29,confess,C,NA,default,34,Yes,NA,Male,English,NA,25
3454,default,block1,danny,projective,0.6,18129,reveal,30,reveal,C,NA,default,34,Yes,NA,Male,English,NA,26
3454,default,block2,grace,ai,0.43000000000000005,16619,discover,32,discover,C,NA,default,34,Yes,NA,Male,English,NA,27
3454,default,block2,jackson,ai,0.45999999999999996,16082,be_annoyed,33,be_annoyed,C,NA,default,34,Yes,NA,Male,English,NA,28
3454,default,block2,jayden,ai,0.69,27382,know,34,know,C,NA,default,34,Yes,NA,Male,English,NA,29
3454,default,block2,julian,ai,0.56,8614,establish,35,establish,C,NA,default,34,Yes,NA,Male,English,NA,30
3454,default,block2,isabella,ai,0.6699999999999999,17464,demonstrate,36,demonstrate,C,NA,default,34,Yes,NA,Male,English,NA,31
3454,default,block2,owen,ai,0.61,14897,admit,37,admit,C,NA,default,34,Yes,NA,Male,English,NA,32
3454,default,block2,tony,ai,0.63,8767,confess,38,confess,C,NA,default,34,Yes,NA,Male,English,NA,33
3454,default,block2,kids,ai,0.97,13513,MC,39,MC,MC,NA,default,34,Yes,NA,Male,English,NA,34
3454,default,block2,mary,ai,0.6599999999999999,8362,hear,40,hear,C,NA,default,34,Yes,NA,Male,English,NA,35
3454,default,block2,jon,ai,0.6699999999999999,42427,confirm,41,confirm,C,NA,default,34,Yes,NA,Male,English,NA,36
3454,default,block2,josie,ai,0.63,15454,inform,42,inform,C,NA,default,34,Yes,NA,Male,English,NA,37
3454,default,block2,ballet,ai,0.98,10709,MC,43,MC,MC,NA,default,34,Yes,NA,Male,English,NA,38
3454,default,block2,emma,ai,0.44999999999999996,12258,be_right,44,be_right,C,NA,default,34,Yes,NA,Male,English,NA,39
3454,default,block2,zoe,ai,0.38,27017,acknowledge,45,acknowledge,C,NA,default,34,Yes,NA,Male,English,NA,40
3454,default,block2,josh,ai,0.42000000000000004,6851,pretend,46,pretend,C,NA,default,34,Yes,NA,Male,English,NA,41
3454,default,block2,olivia,ai,0.32999999999999996,7828,think,47,think,C,NA,default,34,Yes,NA,Male,English,NA,42
3454,default,block2,sophia,ai,0.4,8132,announce,48,announce,C,NA,default,34,Yes,NA,Male,English,NA,43
3454,default,block2,mia,ai,0.43999999999999995,9320,suggest,49,suggest,C,NA,default,34,Yes,NA,Male,English,NA,44
3454,default,block2,hat,ai,0.97,8602,MC,50,MC,MC,NA,default,34,Yes,NA,Male,English,NA,45
3454,default,block2,charley,ai,0.39,5674,say,51,say,C,NA,default,34,Yes,NA,Male,English,NA,46
3454,default,block2,danny,ai,0.49,7777,reveal,52,reveal,C,NA,default,34,Yes,NA,Male,English,NA,47
3454,default,block2,muffins,ai,0.99,7944,MC,53,MC,MC,NA,default,34,Yes,NA,Male,English,NA,48
3454,default,block2,garage,ai,0.96,8562,MC,54,MC,MC,NA,default,34,Yes,NA,Male,English,NA,49
3454,default,block2,frank,ai,0.36,6373,see,55,see,C,NA,default,34,Yes,NA,Male,English,NA,50
3454,default,block2,emily,ai,0.35,5187,prove,56,prove,C,NA,default,34,Yes,NA,Male,English,NA,51
3454,default,block2,pizza,ai,0.99,7635,MC,57,MC,MC,NA,default,34,Yes,NA,Male,English,NA,52
3371,default,block1,mia,ai,0.15000000000000002,23116,hear,5,hear,C,NA,default,21,Yes,NA,Female,English,NA,1
3371,default,block1,emily,ai,0.6699999999999999,40626,suggest,6,suggest,C,NA,default,21,Yes,NA,Female,English,NA,2
3371,default,block1,kids,ai,0.07999999999999996,15143,MC,7,MC,MC,NA,default,21,Yes,NA,Female,English,NA,3
3371,default,block1,ballet,ai,0.010000000000000009,16106,MC,8,MC,MC,NA,default,21,Yes,NA,Female,English,NA,4
3371,default,block1,josh,ai,0.32999999999999996,79132,discover,9,discover,C,NA,default,21,Yes,NA,Female,English,NA,5
3371,default,block1,hat,ai,0.4,16901,MC,10,MC,MC,NA,default,21,Yes,NA,Female,English,NA,6
3371,default,block1,danny,ai,0.20999999999999996,57234,demonstrate,11,demonstrate,C,NA,default,21,Yes,NA,Female,English,NA,7
3371,default,block1,jon,ai,0.31000000000000005,291979,think,12,think,C,NA,default,21,Yes,NA,Female,English,NA,8
3371,default,block1,emma,ai,0.61,11131,be_right,13,be_right,C,NA,default,21,Yes,NA,Female,English,NA,9
3371,default,block1,jayden,ai,0.25,10083,confirm,14,confirm,C,NA,default,21,Yes,NA,Female,English,NA,10
3371,default,block1,zoe,ai,0.44999999999999996,26201,acknowledge,15,acknowledge,C,NA,default,21,Yes,NA,Female,English,NA,11
3371,default,block1,olivia,ai,0.24,13602,admit,16,admit,C,NA,default,21,Yes,NA,Female,English,NA,12
3371,default,block1,julian,ai,0.51,15371,pretend,17,pretend,C,NA,default,21,Yes,NA,Female,English,NA,13
3371,default,block1,sophia,ai,0.18000000000000005,20640,inform,18,inform,C,NA,default,21,Yes,NA,Female,English,NA,14
3371,default,block1,jackson,ai,0.26,27726,announce,19,announce,C,NA,default,21,Yes,NA,Female,English,NA,15
3371,default,block1,josie,ai,0.32999999999999996,45166,prove,20,prove,C,NA,default,21,Yes,NA,Female,English,NA,16
3371,default,block1,owen,ai,0.19999999999999996,14373,reveal,21,reveal,C,NA,default,21,Yes,NA,Female,English,NA,17
3371,default,block1,muffins,ai,0.29000000000000004,12170,MC,22,MC,MC,NA,default,21,Yes,NA,Female,English,NA,18
3371,default,block1,pizza,ai,0.24,25799,MC,23,MC,MC,NA,default,21,Yes,NA,Female,English,NA,19
3371,default,block1,mary,ai,0.27,14877,know,24,know,C,NA,default,21,Yes,NA,Female,English,NA,20
3371,default,block1,tony,ai,0.16000000000000003,11209,see,25,see,C,NA,default,21,Yes,NA,Female,English,NA,21
3371,default,block1,charley,ai,0.28,8862,confess,26,confess,C,NA,default,21,Yes,NA,Female,English,NA,22
3371,default,block1,grace,ai,0.030000000000000027,17514,be_annoyed,27,be_annoyed,C,NA,default,21,Yes,NA,Female,English,NA,23
3371,default,block1,garage,ai,0.22999999999999998,10034,MC,28,MC,MC,NA,default,21,Yes,NA,Female,English,NA,24
3371,default,block1,isabella,ai,0.30000000000000004,64096,say,29,say,C,NA,default,21,Yes,NA,Female,English,NA,25
3371,default,block1,frank,ai,0.30000000000000004,43586,establish,30,establish,C,NA,default,21,Yes,NA,Female,English,NA,26
3371,default,block2,owen,projective,0.96,13197,reveal,32,reveal,C,NA,default,21,Yes,NA,Female,English,NA,27
3371,default,block2,sophia,projective,0.99,19736,inform,33,inform,C,NA,default,21,Yes,NA,Female,English,NA,28
3371,default,block2,olivia,projective,0.97,11123,admit,34,admit,C,NA,default,21,Yes,NA,Female,English,NA,29
3371,default,block2,jayden,projective,0.01,8263,confirm,35,confirm,C,NA,default,21,Yes,NA,Female,English,NA,30
3371,default,block2,julian,projective,0.95,6944,pretend,36,pretend,C,NA,default,21,Yes,NA,Female,English,NA,31
3371,default,block2,danny,projective,0.95,8336,demonstrate,37,demonstrate,C,NA,default,21,Yes,NA,Female,English,NA,32
3371,default,block2,isabella,projective,0.64,9816,say,38,say,C,NA,default,21,Yes,NA,Female,English,NA,33
3371,default,block2,josie,projective,0.08,9657,prove,39,prove,C,NA,default,21,Yes,NA,Female,English,NA,34
3371,default,block2,emma,projective,0.04,15584,be_right,40,be_right,C,NA,default,21,Yes,NA,Female,English,NA,35
3371,default,block2,josh,projective,0.98,8323,discover,41,discover,C,NA,default,21,Yes,NA,Female,English,NA,36
3371,default,block2,grace,projective,0.97,14960,be_annoyed,42,be_annoyed,C,NA,default,21,Yes,NA,Female,English,NA,37
3371,default,block2,tony,projective,0.06,12531,see,43,see,C,NA,default,21,Yes,NA,Female,English,NA,38
3371,default,block2,hat,projective,0.96,6784,MC,44,MC,MC,NA,default,21,Yes,NA,Female,English,NA,39
3371,default,block2,kids,projective,0.97,8457,MC,45,MC,MC,NA,default,21,Yes,NA,Female,English,NA,40
3371,default,block2,pizza,projective,0.97,13459,MC,46,MC,MC,NA,default,21,Yes,NA,Female,English,NA,41
3371,default,block2,mary,projective,0.97,6660,know,47,know,C,NA,default,21,Yes,NA,Female,English,NA,42
3371,default,block2,ballet,projective,0.98,5012,MC,48,MC,MC,NA,default,21,Yes,NA,Female,English,NA,43
3371,default,block2,emily,projective,0.17,12422,suggest,49,suggest,C,NA,default,21,Yes,NA,Female,English,NA,44
3371,default,block2,garage,projective,0.95,8616,MC,50,MC,MC,NA,default,21,Yes,NA,Female,English,NA,45
3371,default,block2,jon,projective,0.92,13261,think,51,think,C,NA,default,21,Yes,NA,Female,English,NA,46
3371,default,block2,jackson,projective,0.85,13129,announce,52,announce,C,NA,default,21,Yes,NA,Female,English,NA,47
3371,default,block2,mia,projective,0.91,11683,hear,53,hear,C,NA,default,21,Yes,NA,Female,English,NA,48
3371,default,block2,muffins,projective,1,9464,MC,54,MC,MC,NA,default,21,Yes,NA,Female,English,NA,49
3371,default,block2,frank,projective,0.96,5585,establish,55,establish,C,NA,default,21,Yes,NA,Female,English,NA,50
3371,default,block2,zoe,projective,0.96,7495,acknowledge,56,acknowledge,C,NA,default,21,Yes,NA,Female,English,NA,51
3371,default,block2,charley,projective,0.95,6257,confess,57,confess,C,NA,default,21,Yes,NA,Female,English,NA,52
3546,default,block1,grace,ai,0.63,32747,inform,5,inform,C,NA,default,20,Yes,NA,Female,English,NA,1
3546,default,block1,charley,ai,0.77,74874,establish,6,establish,C,NA,default,20,Yes,NA,Female,English,NA,2
3546,default,block1,muffins,ai,0.89,9122,MC,7,MC,MC,NA,default,20,Yes,NA,Female,English,NA,3
3546,default,block1,emily,ai,1,10375,see,8,see,C,NA,default,20,Yes,NA,Female,English,NA,4
3546,default,block1,mary,ai,0.15000000000000002,7737,announce,9,announce,C,NA,default,20,Yes,NA,Female,English,NA,5
3546,default,block1,emma,ai,0.85,6401,know,10,know,C,NA,default,20,Yes,NA,Female,English,NA,6
3546,default,block1,jayden,ai,0.15000000000000002,12230,reveal,11,reveal,C,NA,default,20,Yes,NA,Female,English,NA,7
3546,default,block1,tony,ai,0.18000000000000005,8791,be_annoyed,12,be_annoyed,C,NA,default,20,Yes,NA,Female,English,NA,8
3546,default,block1,owen,ai,0.19999999999999996,6589,think,13,think,C,NA,default,20,Yes,NA,Female,English,NA,9
3546,default,block1,ballet,ai,0.64,13151,MC,14,MC,MC,NA,default,20,Yes,NA,Female,English,NA,10
3546,default,block1,pizza,ai,0.6799999999999999,9582,MC,15,MC,MC,NA,default,20,Yes,NA,Female,English,NA,11
3546,default,block1,josh,ai,0.30000000000000004,40321,prove,16,prove,C,NA,default,20,Yes,NA,Female,English,NA,12
3546,default,block1,olivia,ai,0.16000000000000003,6549,confirm,17,confirm,C,NA,default,20,Yes,NA,Female,English,NA,13
3546,default,block1,julian,ai,0.79,5501,confess,18,confess,C,NA,default,20,Yes,NA,Female,English,NA,14
3546,default,block1,garage,ai,0.79,7198,MC,19,MC,MC,NA,default,20,Yes,NA,Female,English,NA,15
3546,default,block1,jackson,ai,0.79,6034,say,20,say,C,NA,default,20,Yes,NA,Female,English,NA,16
3546,default,block1,kids,ai,0.64,7935,MC,21,MC,MC,NA,default,20,Yes,NA,Female,English,NA,17
3546,default,block1,josie,ai,0.18999999999999995,6809,demonstrate,22,demonstrate,C,NA,default,20,Yes,NA,Female,English,NA,18
3546,default,block1,isabella,ai,0.74,5987,suggest,23,suggest,C,NA,default,20,Yes,NA,Female,English,NA,19
3546,default,block1,frank,ai,0.33999999999999997,5998,pretend,24,pretend,C,NA,default,20,Yes,NA,Female,English,NA,20
3546,default,block1,danny,ai,0.24,5000,hear,25,hear,C,NA,default,20,Yes,NA,Female,English,NA,21
3546,default,block1,zoe,ai,0.77,10818,acknowledge,26,acknowledge,C,NA,default,20,Yes,NA,Female,English,NA,22
3546,default,block1,sophia,ai,0.24,6366,discover,27,discover,C,NA,default,20,Yes,NA,Female,English,NA,23
3546,default,block1,hat,ai,0.6799999999999999,5698,MC,28,MC,MC,NA,default,20,Yes,NA,Female,English,NA,24
3546,default,block1,mia,ai,0.22999999999999998,4392,admit,29,admit,C,NA,default,20,Yes,NA,Female,English,NA,25
3546,default,block1,jon,ai,0.24,2814,be_right,30,be_right,C,NA,default,20,Yes,NA,Female,English,NA,26
3546,default,block2,jon,projective,0.21,18342,be_right,32,be_right,C,NA,default,20,Yes,NA,Female,English,NA,27
3546,default,block2,kids,projective,0.91,6162,MC,33,MC,MC,NA,default,20,Yes,NA,Female,English,NA,28
3546,default,block2,olivia,projective,0.23,11009,confirm,34,confirm,C,NA,default,20,Yes,NA,Female,English,NA,29
3546,default,block2,garage,projective,0.91,5105,MC,35,MC,MC,NA,default,20,Yes,NA,Female,English,NA,30
3546,default,block2,danny,projective,0.2,5017,hear,36,hear,C,NA,default,20,Yes,NA,Female,English,NA,31
3546,default,block2,tony,projective,0.18,2692,be_annoyed,37,be_annoyed,C,NA,default,20,Yes,NA,Female,English,NA,32
3546,default,block2,mary,projective,0.8,13279,announce,38,announce,C,NA,default,20,Yes,NA,Female,English,NA,33
3546,default,block2,emma,projective,0.76,9146,know,39,know,C,NA,default,20,Yes,NA,Female,English,NA,34
3546,default,block2,grace,projective,0.25,4900,inform,40,inform,C,NA,default,20,Yes,NA,Female,English,NA,35
3546,default,block2,mia,projective,0.27,8698,admit,41,admit,C,NA,default,20,Yes,NA,Female,English,NA,36
3546,default,block2,isabella,projective,0.3,6455,suggest,42,suggest,C,NA,default,20,Yes,NA,Female,English,NA,37
3546,default,block2,hat,projective,0.86,6719,MC,43,MC,MC,NA,default,20,Yes,NA,Female,English,NA,38
3546,default,block2,emily,projective,0.74,4248,see,44,see,C,NA,default,20,Yes,NA,Female,English,NA,39
3546,default,block2,julian,projective,0.3,6405,confess,45,confess,C,NA,default,20,Yes,NA,Female,English,NA,40
3546,default,block2,josie,projective,0.27,5773,demonstrate,46,demonstrate,C,NA,default,20,Yes,NA,Female,English,NA,41
3546,default,block2,pizza,projective,0.83,5174,MC,47,MC,MC,NA,default,20,Yes,NA,Female,English,NA,42
3546,default,block2,muffins,projective,0.8,5839,MC,48,MC,MC,NA,default,20,Yes,NA,Female,English,NA,43
3546,default,block2,sophia,projective,0.74,5773,discover,49,discover,C,NA,default,20,Yes,NA,Female,English,NA,44
3546,default,block2,jayden,projective,0.29,7429,reveal,50,reveal,C,NA,default,20,Yes,NA,Female,English,NA,45
3546,default,block2,zoe,projective,0.71,6691,acknowledge,51,acknowledge,C,NA,default,20,Yes,NA,Female,English,NA,46
3546,default,block2,owen,projective,0.34,6234,think,52,think,C,NA,default,20,Yes,NA,Female,English,NA,47
3546,default,block2,ballet,projective,0.88,3982,MC,53,MC,MC,NA,default,20,Yes,NA,Female,English,NA,48
3546,default,block2,jackson,projective,0.28,4461,say,54,say,C,NA,default,20,Yes,NA,Female,English,NA,49
3546,default,block2,frank,projective,0.09,6324,pretend,55,pretend,C,NA,default,20,Yes,NA,Female,English,NA,50
3546,default,block2,josh,projective,0.17,6204,prove,56,prove,C,NA,default,20,Yes,NA,Female,English,NA,51
3546,default,block2,charley,projective,0.21,4625,establish,57,establish,C,NA,default,20,Yes,NA,Female,English,NA,52
3552,default,block1,ballet,projective,0.95,7740,MC,5,MC,MC,NA,default,27,Yes,NA,Female,english,NA,1
3552,default,block1,sophia,projective,0.67,18604,admit,6,admit,C,NA,default,27,Yes,NA,Female,english,NA,2
3552,default,block1,zoe,projective,0.62,13964,think,7,think,C,NA,default,27,Yes,NA,Female,english,NA,3
3552,default,block1,grace,projective,0.57,13404,hear,8,hear,C,NA,default,27,Yes,NA,Female,english,NA,4
3552,default,block1,hat,projective,0.94,5882,MC,9,MC,MC,NA,default,27,Yes,NA,Female,english,NA,5
3552,default,block1,muffins,projective,0.97,4510,MC,10,MC,MC,NA,default,27,Yes,NA,Female,english,NA,6
3552,default,block1,mia,projective,0.66,5547,be_annoyed,11,be_annoyed,C,NA,default,27,Yes,NA,Female,english,NA,7
3552,default,block1,mary,projective,0.74,5325,announce,12,announce,C,NA,default,27,Yes,NA,Female,english,NA,8
3552,default,block1,tony,projective,0.59,7828,demonstrate,13,demonstrate,C,NA,default,27,Yes,NA,Female,english,NA,9
3552,default,block1,pizza,projective,0.97,5226,MC,14,MC,MC,NA,default,27,Yes,NA,Female,english,NA,10
3552,default,block1,jon,projective,0.71,6527,reveal,15,reveal,C,NA,default,27,Yes,NA,Female,english,NA,11
3552,default,block1,kids,projective,0.97,5117,MC,16,MC,MC,NA,default,27,Yes,NA,Female,english,NA,12
3552,default,block1,frank,projective,0.7,4591,prove,17,prove,C,NA,default,27,Yes,NA,Female,english,NA,13
3552,default,block1,garage,projective,0.96,6727,MC,18,MC,MC,NA,default,27,Yes,NA,Female,english,NA,14
3552,default,block1,josh,projective,0.63,4428,be_right,19,be_right,C,NA,default,27,Yes,NA,Female,english,NA,15
3552,default,block1,josie,projective,0.33,4289,suggest,20,suggest,C,NA,default,27,Yes,NA,Female,english,NA,16
3552,default,block1,emily,projective,0.63,15536,acknowledge,21,acknowledge,C,NA,default,27,Yes,NA,Female,english,NA,17
3552,default,block1,olivia,projective,0.58,3836,know,22,know,C,NA,default,27,Yes,NA,Female,english,NA,18
3552,default,block1,jackson,projective,0.6,6658,discover,23,discover,C,NA,default,27,Yes,NA,Female,english,NA,19
3552,default,block1,emma,projective,0.1,7762,pretend,24,pretend,C,NA,default,27,Yes,NA,Female,english,NA,20
3552,default,block1,owen,projective,0.59,6161,confess,25,confess,C,NA,default,27,Yes,NA,Female,english,NA,21
3552,default,block1,isabella,projective,0.59,17197,inform,26,inform,C,NA,default,27,Yes,NA,Female,english,NA,22
3552,default,block1,julian,projective,0.55,7339,confirm,27,confirm,C,NA,default,27,Yes,NA,Female,english,NA,23
3552,default,block1,danny,projective,0.72,7891,see,28,see,C,NA,default,27,Yes,NA,Female,english,NA,24
3552,default,block1,charley,projective,0.34,4404,say,29,say,C,NA,default,27,Yes,NA,Female,english,NA,25
3552,default,block1,jayden,projective,0.41,4977,establish,30,establish,C,NA,default,27,Yes,NA,Female,english,NA,26
3552,default,block2,jackson,ai,0.09999999999999998,15963,discover,32,discover,C,NA,default,27,Yes,NA,Female,english,NA,27
3552,default,block2,danny,ai,0.06000000000000005,7849,see,33,see,C,NA,default,27,Yes,NA,Female,english,NA,28
3552,default,block2,josie,ai,0.07999999999999996,7510,suggest,34,suggest,C,NA,default,27,Yes,NA,Female,english,NA,29
3552,default,block2,kids,ai,0.92,15829,MC,35,MC,MC,NA,default,27,Yes,NA,Female,english,NA,30
3552,default,block2,isabella,ai,0.09999999999999998,8058,inform,36,inform,C,NA,default,27,Yes,NA,Female,english,NA,31
3552,default,block2,tony,ai,0.07999999999999996,6453,demonstrate,37,demonstrate,C,NA,default,27,Yes,NA,Female,english,NA,32
3552,default,block2,mia,ai,0.06000000000000005,9595,be_annoyed,38,be_annoyed,C,NA,default,27,Yes,NA,Female,english,NA,33
3552,default,block2,hat,ai,0.95,4819,MC,39,MC,MC,NA,default,27,Yes,NA,Female,english,NA,34
3552,default,block2,olivia,ai,0.040000000000000036,5935,know,40,know,C,NA,default,27,Yes,NA,Female,english,NA,35
3552,default,block2,julian,ai,0.08999999999999997,4638,confirm,41,confirm,C,NA,default,27,Yes,NA,Female,english,NA,36
3552,default,block2,ballet,ai,0.95,3772,MC,42,MC,MC,NA,default,27,Yes,NA,Female,english,NA,37
3552,default,block2,sophia,ai,0.06000000000000005,4788,admit,43,admit,C,NA,default,27,Yes,NA,Female,english,NA,38
3552,default,block2,garage,ai,0.92,6250,MC,44,MC,MC,NA,default,27,Yes,NA,Female,english,NA,39
3552,default,block2,jayden,ai,0.06999999999999995,4129,establish,45,establish,C,NA,default,27,Yes,NA,Female,english,NA,40
3552,default,block2,zoe,ai,0.050000000000000044,5009,think,46,think,C,NA,default,27,Yes,NA,Female,english,NA,41
3552,default,block2,owen,ai,0.050000000000000044,4484,confess,47,confess,C,NA,default,27,Yes,NA,Female,english,NA,42
3552,default,block2,emily,ai,0.040000000000000036,4056,acknowledge,48,acknowledge,C,NA,default,27,Yes,NA,Female,english,NA,43
3552,default,block2,grace,ai,0.050000000000000044,4339,hear,49,hear,C,NA,default,27,Yes,NA,Female,english,NA,44
3552,default,block2,charley,ai,0.050000000000000044,5499,say,50,say,C,NA,default,27,Yes,NA,Female,english,NA,45
3552,default,block2,mary,ai,0.06000000000000005,11552,announce,51,announce,C,NA,default,27,Yes,NA,Female,english,NA,46
3552,default,block2,emma,ai,0.050000000000000044,6443,pretend,52,pretend,C,NA,default,27,Yes,NA,Female,english,NA,47
3552,default,block2,josh,ai,0.07999999999999996,4811,be_right,53,be_right,C,NA,default,27,Yes,NA,Female,english,NA,48
3552,default,block2,pizza,ai,0.91,4648,MC,54,MC,MC,NA,default,27,Yes,NA,Female,english,NA,49
3552,default,block2,jon,ai,0.06999999999999995,4063,reveal,55,reveal,C,NA,default,27,Yes,NA,Female,english,NA,50
3552,default,block2,frank,ai,0.09999999999999998,32089,prove,56,prove,C,NA,default,27,Yes,NA,Female,english,NA,51
3552,default,block2,muffins,ai,0.28,6962,MC,57,MC,MC,NA,default,27,Yes,NA,Female,english,NA,52
3486,default,block1,sophia,ai,0,28768,inform,5,inform,C,NA,default,27,Yes,NA,Female,English,NA,1
3486,default,block1,julian,ai,0.75,12388,confirm,6,confirm,C,NA,default,27,Yes,NA,Female,English,NA,2
3486,default,block1,garage,ai,0.83,31870,MC,7,MC,MC,NA,default,27,Yes,NA,Female,English,NA,3
3486,default,block1,tony,ai,0.6,14505,establish,8,establish,C,NA,default,27,Yes,NA,Female,English,NA,4
3486,default,block1,emily,ai,0.38,23729,hear,9,hear,C,NA,default,27,Yes,NA,Female,English,NA,5
3486,default,block1,pizza,ai,1,6985,MC,10,MC,MC,NA,default,27,Yes,NA,Female,English,NA,6
3486,default,block1,owen,ai,0.5900000000000001,37846,demonstrate,11,demonstrate,C,NA,default,27,Yes,NA,Female,English,NA,7
3486,default,block1,muffins,ai,0.88,22229,MC,12,MC,MC,NA,default,27,Yes,NA,Female,English,NA,8
3486,default,block1,grace,ai,0.30000000000000004,30352,acknowledge,13,acknowledge,C,NA,default,27,Yes,NA,Female,English,NA,9
3486,default,block1,danny,ai,0.14,7278,discover,14,discover,C,NA,default,27,Yes,NA,Female,English,NA,10
3486,default,block1,jayden,ai,0.72,6372,prove,15,prove,C,NA,default,27,Yes,NA,Female,English,NA,11
3486,default,block1,charley,ai,0.6,10325,see,16,see,C,NA,default,27,Yes,NA,Female,English,NA,12
3486,default,block1,mia,ai,0.26,9570,confess,17,confess,C,NA,default,27,Yes,NA,Female,English,NA,13
3486,default,block1,kids,ai,0.85,16489,MC,18,MC,MC,NA,default,27,Yes,NA,Female,English,NA,14
3486,default,block1,josh,ai,0.4,7672,suggest,19,suggest,C,NA,default,27,Yes,NA,Female,English,NA,15
3486,default,block1,frank,ai,0.22999999999999998,15976,know,20,know,C,NA,default,27,Yes,NA,Female,English,NA,16
3486,default,block1,zoe,ai,0.09999999999999998,9827,admit,21,admit,C,NA,default,27,Yes,NA,Female,English,NA,17
3486,default,block1,emma,ai,0.63,9208,be_annoyed,22,be_annoyed,C,NA,default,27,Yes,NA,Female,English,NA,18
3486,default,block1,isabella,ai,0.36,6483,say,23,say,C,NA,default,27,Yes,NA,Female,English,NA,19
3486,default,block1,jackson,ai,0.43000000000000005,19182,reveal,24,reveal,C,NA,default,27,Yes,NA,Female,English,NA,20
3486,default,block1,mary,ai,0.19999999999999996,10375,think,25,think,C,NA,default,27,Yes,NA,Female,English,NA,21
3486,default,block1,josie,ai,0.37,20334,be_right,26,be_right,C,NA,default,27,Yes,NA,Female,English,NA,22
3486,default,block1,ballet,ai,0.9,4736,MC,27,MC,MC,NA,default,27,Yes,NA,Female,English,NA,23
3486,default,block1,hat,ai,0.25,5968,MC,28,MC,MC,NA,default,27,Yes,NA,Female,English,NA,24
3486,default,block1,jon,ai,0.78,9903,pretend,29,pretend,C,NA,default,27,Yes,NA,Female,English,NA,25
3486,default,block1,olivia,ai,0.20999999999999996,13822,announce,30,announce,C,NA,default,27,Yes,NA,Female,English,NA,26
3486,default,block2,jon,projective,0,24491,pretend,32,pretend,C,NA,default,27,Yes,NA,Female,English,NA,27
3486,default,block2,sophia,projective,0.98,19737,inform,33,inform,C,NA,default,27,Yes,NA,Female,English,NA,28
3486,default,block2,frank,projective,0.98,6116,know,34,know,C,NA,default,27,Yes,NA,Female,English,NA,29
3486,default,block2,emily,projective,0.91,30498,hear,35,hear,C,NA,default,27,Yes,NA,Female,English,NA,30
3486,default,block2,olivia,projective,1,8858,announce,36,announce,C,NA,default,27,Yes,NA,Female,English,NA,31
3486,default,block2,charley,projective,0.93,8758,see,37,see,C,NA,default,27,Yes,NA,Female,English,NA,32
3486,default,block2,mary,projective,0.39,12251,think,38,think,C,NA,default,27,Yes,NA,Female,English,NA,33
3486,default,block2,pizza,projective,0.95,8396,MC,39,MC,MC,NA,default,27,Yes,NA,Female,English,NA,34
3486,default,block2,zoe,projective,0.78,15761,admit,40,admit,C,NA,default,27,Yes,NA,Female,English,NA,35
3486,default,block2,garage,projective,0.89,9971,MC,41,MC,MC,NA,default,27,Yes,NA,Female,English,NA,36
3486,default,block2,tony,projective,0.82,9451,establish,42,establish,C,NA,default,27,Yes,NA,Female,English,NA,37
3486,default,block2,julian,projective,0.5,6276,confirm,43,confirm,C,NA,default,27,Yes,NA,Female,English,NA,38
3486,default,block2,ballet,projective,1,8889,MC,44,MC,MC,NA,default,27,Yes,NA,Female,English,NA,39
3486,default,block2,jackson,projective,1,11605,reveal,45,reveal,C,NA,default,27,Yes,NA,Female,English,NA,40
3486,default,block2,jayden,projective,0.81,11190,prove,46,prove,C,NA,default,27,Yes,NA,Female,English,NA,41
3486,default,block2,hat,projective,0.99,7035,MC,47,MC,MC,NA,default,27,Yes,NA,Female,English,NA,42
3486,default,block2,emma,projective,1,15534,be_annoyed,48,be_annoyed,C,NA,default,27,Yes,NA,Female,English,NA,43
3486,default,block2,josh,projective,0.72,9168,suggest,49,suggest,C,NA,default,27,Yes,NA,Female,English,NA,44
3486,default,block2,muffins,projective,0.99,4205,MC,50,MC,MC,NA,default,27,Yes,NA,Female,English,NA,45
3486,default,block2,owen,projective,0.88,6512,demonstrate,51,demonstrate,C,NA,default,27,Yes,NA,Female,English,NA,46
3486,default,block2,danny,projective,0.97,7192,discover,52,discover,C,NA,default,27,Yes,NA,Female,English,NA,47
3486,default,block2,grace,projective,0.9,11430,acknowledge,53,acknowledge,C,NA,default,27,Yes,NA,Female,English,NA,48
3486,default,block2,mia,projective,0.97,8309,confess,54,confess,C,NA,default,27,Yes,NA,Female,English,NA,49
3486,default,block2,josie,projective,0.57,52330,be_right,55,be_right,C,NA,default,27,Yes,NA,Female,English,NA,50
3486,default,block2,isabella,projective,1,10323,say,56,say,C,NA,default,27,Yes,NA,Female,English,NA,51
3486,default,block2,kids,projective,0.98,8058,MC,57,MC,MC,NA,default,27,Yes,NA,Female,English,NA,52
3453,default,block1,owen,ai,0.010000000000000009,81379,be_annoyed,5,be_annoyed,C,NA,default,27,Yes,NA,Female,English,NA,1
3453,default,block1,ballet,ai,0.97,40713,MC,6,MC,MC,NA,default,27,Yes,NA,Female,English,NA,2
3453,default,block1,jayden,ai,0,81247,say,7,say,C,NA,default,27,Yes,NA,Female,English,NA,3
3453,default,block1,charley,ai,0.010000000000000009,10458,establish,8,establish,C,NA,default,27,Yes,NA,Female,English,NA,4
3453,default,block1,josie,ai,0.030000000000000027,9365,suggest,9,suggest,C,NA,default,27,Yes,NA,Female,English,NA,5
3453,default,block1,pizza,ai,0.98,10000,MC,10,MC,MC,NA,default,27,Yes,NA,Female,English,NA,6
3453,default,block1,garage,ai,0.97,9931,MC,11,MC,MC,NA,default,27,Yes,NA,Female,English,NA,7
3453,default,block1,olivia,ai,0.020000000000000018,10985,admit,12,admit,C,NA,default,27,Yes,NA,Female,English,NA,8
3453,default,block1,emma,ai,0.010000000000000009,9475,pretend,13,pretend,C,NA,default,27,Yes,NA,Female,English,NA,9
3453,default,block1,zoe,ai,0.020000000000000018,10693,demonstrate,14,demonstrate,C,NA,default,27,Yes,NA,Female,English,NA,10
3453,default,block1,mia,ai,0,8297,prove,15,prove,C,NA,default,27,Yes,NA,Female,English,NA,11
3453,default,block1,emily,ai,0.020000000000000018,8024,hear,16,hear,C,NA,default,27,Yes,NA,Female,English,NA,12
3453,default,block1,julian,ai,0.020000000000000018,6513,confirm,17,confirm,C,NA,default,27,Yes,NA,Female,English,NA,13
3453,default,block1,tony,ai,0.020000000000000018,8882,announce,18,announce,C,NA,default,27,Yes,NA,Female,English,NA,14
3453,default,block1,mary,ai,0.020000000000000018,9451,acknowledge,19,acknowledge,C,NA,default,27,Yes,NA,Female,English,NA,15
3453,default,block1,hat,ai,0.98,5926,MC,20,MC,MC,NA,default,27,Yes,NA,Female,English,NA,16
3453,default,block1,kids,ai,0.97,5210,MC,21,MC,MC,NA,default,27,Yes,NA,Female,English,NA,17
3453,default,block1,grace,ai,0.010000000000000009,8315,see,22,see,C,NA,default,27,Yes,NA,Female,English,NA,18
3453,default,block1,muffins,ai,0.98,5905,MC,23,MC,MC,NA,default,27,Yes,NA,Female,English,NA,19
3453,default,block1,isabella,ai,0.010000000000000009,6519,reveal,24,reveal,C,NA,default,27,Yes,NA,Female,English,NA,20
3453,default,block1,jon,ai,0.020000000000000018,8162,know,25,know,C,NA,default,27,Yes,NA,Female,English,NA,21
3453,default,block1,danny,ai,0,17083,confess,26,confess,C,NA,default,27,Yes,NA,Female,English,NA,22
3453,default,block1,jackson,ai,0.010000000000000009,7425,be_right,27,be_right,C,NA,default,27,Yes,NA,Female,English,NA,23
3453,default,block1,frank,ai,0.020000000000000018,7824,discover,28,discover,C,NA,default,27,Yes,NA,Female,English,NA,24
3453,default,block1,josh,ai,0.030000000000000027,8019,inform,29,inform,C,NA,default,27,Yes,NA,Female,English,NA,25
3453,default,block1,sophia,ai,0.020000000000000018,7121,think,30,think,C,NA,default,27,Yes,NA,Female,English,NA,26
3453,default,block2,emma,projective,0.02,19472,pretend,32,pretend,C,NA,default,27,Yes,NA,Female,English,NA,27
3453,default,block2,josh,projective,0.98,13878,inform,33,inform,C,NA,default,27,Yes,NA,Female,English,NA,28
3453,default,block2,julian,projective,0.97,9945,confirm,34,confirm,C,NA,default,27,Yes,NA,Female,English,NA,29
3453,default,block2,mia,projective,0.02,11394,prove,35,prove,C,NA,default,27,Yes,NA,Female,English,NA,30
3453,default,block2,frank,projective,0.98,5596,discover,36,discover,C,NA,default,27,Yes,NA,Female,English,NA,31
3453,default,block2,jackson,projective,0.03,7178,be_right,37,be_right,C,NA,default,27,Yes,NA,Female,English,NA,32
3453,default,block2,sophia,projective,0.02,8634,think,38,think,C,NA,default,27,Yes,NA,Female,English,NA,33
3453,default,block2,tony,projective,0.99,10674,announce,39,announce,C,NA,default,27,Yes,NA,Female,English,NA,34
3453,default,block2,owen,projective,0.99,8495,be_annoyed,40,be_annoyed,C,NA,default,27,Yes,NA,Female,English,NA,35
3453,default,block2,muffins,projective,0.95,7185,MC,41,MC,MC,NA,default,27,Yes,NA,Female,English,NA,36
3453,default,block2,isabella,projective,0.96,5958,reveal,42,reveal,C,NA,default,27,Yes,NA,Female,English,NA,37
3453,default,block2,josie,projective,0.99,8573,suggest,43,suggest,C,NA,default,27,Yes,NA,Female,English,NA,38
3453,default,block2,garage,projective,0.97,5314,MC,44,MC,MC,NA,default,27,Yes,NA,Female,English,NA,39
3453,default,block2,danny,projective,0.96,6584,confess,45,confess,C,NA,default,27,Yes,NA,Female,English,NA,40
3453,default,block2,kids,projective,0.99,5412,MC,46,MC,MC,NA,default,27,Yes,NA,Female,English,NA,41
3453,default,block2,pizza,projective,0.97,4456,MC,47,MC,MC,NA,default,27,Yes,NA,Female,English,NA,42
3453,default,block2,grace,projective,0.97,8658,see,48,see,C,NA,default,27,Yes,NA,Female,English,NA,43
3453,default,block2,jon,projective,0.99,4922,know,49,know,C,NA,default,27,Yes,NA,Female,English,NA,44
3453,default,block2,charley,projective,0,7645,establish,50,establish,C,NA,default,27,Yes,NA,Female,English,NA,45
3453,default,block2,ballet,projective,1,3626,MC,51,MC,MC,NA,default,27,Yes,NA,Female,English,NA,46
3453,default,block2,mary,projective,0.96,4934,acknowledge,52,acknowledge,C,NA,default,27,Yes,NA,Female,English,NA,47
3453,default,block2,emily,projective,0.97,7535,hear,53,hear,C,NA,default,27,Yes,NA,Female,English,NA,48
3453,default,block2,hat,projective,0.98,3890,MC,54,MC,MC,NA,default,27,Yes,NA,Female,English,NA,49
3453,default,block2,zoe,projective,0.97,4555,demonstrate,55,demonstrate,C,NA,default,27,Yes,NA,Female,English,NA,50
3453,default,block2,olivia,projective,0.97,3441,admit,56,admit,C,NA,default,27,Yes,NA,Female,English,NA,51
3453,default,block2,jayden,projective,1,7273,say,57,say,C,NA,default,27,Yes,NA,Female,English,NA,52
3539,default,block1,mia,projective,0.06,17060,establish,5,establish,C,NA,default,27,Yes,NA,Female,English,NA,1
3539,default,block1,julian,projective,0.11,9740,be_right,6,be_right,C,NA,default,27,Yes,NA,Female,English,NA,2
3539,default,block1,josh,projective,0.12,8725,know,7,know,C,NA,default,27,Yes,NA,Female,English,NA,3
3539,default,block1,kids,projective,0.87,11857,MC,8,MC,MC,NA,default,27,Yes,NA,Female,English,NA,4
3539,default,block1,charley,projective,0.58,12802,think,9,think,C,NA,default,27,Yes,NA,Female,English,NA,5
3539,default,block1,emma,projective,0.93,9908,discover,10,discover,C,NA,default,27,Yes,NA,Female,English,NA,6
3539,default,block1,emily,projective,0.74,9238,demonstrate,11,demonstrate,C,NA,default,27,Yes,NA,Female,English,NA,7
3539,default,block1,sophia,projective,0.56,8231,confirm,12,confirm,C,NA,default,27,Yes,NA,Female,English,NA,8
3539,default,block1,jon,projective,0.57,12403,admit,13,admit,C,NA,default,27,Yes,NA,Female,English,NA,9
3539,default,block1,josie,projective,0.94,11513,be_annoyed,14,be_annoyed,C,NA,default,27,Yes,NA,Female,English,NA,10
3539,default,block1,muffins,projective,0.98,9553,MC,15,MC,MC,NA,default,27,Yes,NA,Female,English,NA,11
3539,default,block1,mary,projective,0.98,7353,announce,16,announce,C,NA,default,27,Yes,NA,Female,English,NA,12
3539,default,block1,tony,projective,0.99,7436,hear,17,hear,C,NA,default,27,Yes,NA,Female,English,NA,13
3539,default,block1,hat,projective,0.93,6712,MC,18,MC,MC,NA,default,27,Yes,NA,Female,English,NA,14
3539,default,block1,jayden,projective,0.67,12932,reveal,19,reveal,C,NA,default,27,Yes,NA,Female,English,NA,15
3539,default,block1,danny,projective,0.36,12933,suggest,20,suggest,C,NA,default,27,Yes,NA,Female,English,NA,16
3539,default,block1,owen,projective,0.13,22458,pretend,21,pretend,C,NA,default,27,Yes,NA,Female,English,NA,17
3539,default,block1,frank,projective,0.74,10577,inform,22,inform,C,NA,default,27,Yes,NA,Female,English,NA,18
3539,default,block1,garage,projective,0.99,6988,MC,23,MC,MC,NA,default,27,Yes,NA,Female,English,NA,19
3539,default,block1,grace,projective,0.94,19316,acknowledge,24,acknowledge,C,NA,default,27,Yes,NA,Female,English,NA,20
3539,default,block1,jackson,projective,0.35,9100,prove,25,prove,C,NA,default,27,Yes,NA,Female,English,NA,21
3539,default,block1,olivia,projective,0.33,7488,confess,26,confess,C,NA,default,27,Yes,NA,Female,English,NA,22
3539,default,block1,zoe,projective,0.84,8431,see,27,see,C,NA,default,27,Yes,NA,Female,English,NA,23
3539,default,block1,isabella,projective,0.53,14586,say,28,say,C,NA,default,27,Yes,NA,Female,English,NA,24
3539,default,block1,pizza,projective,0.95,6571,MC,29,MC,MC,NA,default,27,Yes,NA,Female,English,NA,25
3539,default,block1,ballet,projective,0.97,8151,MC,30,MC,MC,NA,default,27,Yes,NA,Female,English,NA,26
3539,default,block2,emily,ai,0.42000000000000004,31191,demonstrate,32,demonstrate,C,NA,default,27,Yes,NA,Female,English,NA,27
3539,default,block2,mia,ai,0.19999999999999996,7764,establish,33,establish,C,NA,default,27,Yes,NA,Female,English,NA,28
3539,default,block2,zoe,ai,0.22999999999999998,11859,see,34,see,C,NA,default,27,Yes,NA,Female,English,NA,29
3539,default,block2,hat,ai,0.65,7683,MC,35,MC,MC,NA,default,27,Yes,NA,Female,English,NA,30
3539,default,block2,emma,ai,0.65,7560,discover,36,discover,C,NA,default,27,Yes,NA,Female,English,NA,31
3539,default,block2,mary,ai,0.22999999999999998,8442,announce,37,announce,C,NA,default,27,Yes,NA,Female,English,NA,32
3539,default,block2,charley,ai,0.49,4596,think,38,think,C,NA,default,27,Yes,NA,Female,English,NA,33
3539,default,block2,danny,ai,0.41000000000000003,3999,suggest,39,suggest,C,NA,default,27,Yes,NA,Female,English,NA,34
3539,default,block2,grace,ai,0.49,4361,acknowledge,40,acknowledge,C,NA,default,27,Yes,NA,Female,English,NA,35
3539,default,block2,jackson,ai,0.38,4422,prove,41,prove,C,NA,default,27,Yes,NA,Female,English,NA,36
3539,default,block2,ballet,ai,0.79,8984,MC,42,MC,MC,NA,default,27,Yes,NA,Female,English,NA,37
3539,default,block2,josh,ai,0.22999999999999998,3639,know,43,know,C,NA,default,27,Yes,NA,Female,English,NA,38
3539,default,block2,muffins,ai,0.81,4324,MC,44,MC,MC,NA,default,27,Yes,NA,Female,English,NA,39
3539,default,block2,tony,ai,0.25,4710,hear,45,hear,C,NA,default,27,Yes,NA,Female,English,NA,40
3539,default,block2,owen,ai,0.48,5071,pretend,46,pretend,C,NA,default,27,Yes,NA,Female,English,NA,41
3539,default,block2,sophia,ai,0.5800000000000001,4529,confirm,47,confirm,C,NA,default,27,Yes,NA,Female,English,NA,42
3539,default,block2,garage,ai,0.92,7904,MC,48,MC,MC,NA,default,27,Yes,NA,Female,English,NA,43
3539,default,block2,jayden,ai,0.37,7504,reveal,49,reveal,C,NA,default,27,Yes,NA,Female,English,NA,44
3539,default,block2,jon,ai,0.87,4412,admit,50,admit,C,NA,default,27,Yes,NA,Female,English,NA,45
3539,default,block2,olivia,ai,0.29000000000000004,4416,confess,51,confess,C,NA,default,27,Yes,NA,Female,English,NA,46
3539,default,block2,isabella,ai,0.38,4036,say,52,say,C,NA,default,27,Yes,NA,Female,English,NA,47
3539,default,block2,julian,ai,0.31999999999999995,7063,be_right,53,be_right,C,NA,default,27,Yes,NA,Female,English,NA,48
3539,default,block2,josie,ai,0.28,3333,be_annoyed,54,be_annoyed,C,NA,default,27,Yes,NA,Female,English,NA,49
3539,default,block2,pizza,ai,0.96,4440,MC,55,MC,MC,NA,default,27,Yes,NA,Female,English,NA,50
3539,default,block2,frank,ai,0.38,4699,inform,56,inform,C,NA,default,27,Yes,NA,Female,English,NA,51
3539,default,block2,kids,ai,0.96,4333,MC,57,MC,MC,NA,default,27,Yes,NA,Female,English,NA,52
3541,default,block1,jackson,projective,0.1,7365,think,5,think,C,NA,default,27,Yes,NA,Female,English,NA,1
3541,default,block1,julian,projective,0.01,18364,demonstrate,6,demonstrate,C,NA,default,27,Yes,NA,Female,English,NA,2
3541,default,block1,tony,projective,0,6986,announce,7,announce,C,NA,default,27,Yes,NA,Female,English,NA,3
3541,default,block1,josie,projective,0.03,5092,be_right,8,be_right,C,NA,default,27,Yes,NA,Female,English,NA,4
3541,default,block1,olivia,projective,0.04,8096,see,9,see,C,NA,default,27,Yes,NA,Female,English,NA,5
3541,default,block1,danny,projective,0.1,9073,establish,10,establish,C,NA,default,27,Yes,NA,Female,English,NA,6
3541,default,block1,emily,projective,0.07,7405,be_annoyed,11,be_annoyed,C,NA,default,27,Yes,NA,Female,English,NA,7
3541,default,block1,hat,projective,0.98,6392,MC,12,MC,MC,NA,default,27,Yes,NA,Female,English,NA,8
3541,default,block1,charley,projective,0.05,5773,know,13,know,C,NA,default,27,Yes,NA,Female,English,NA,9
3541,default,block1,frank,projective,0.89,6050,hear,14,hear,C,NA,default,27,Yes,NA,Female,English,NA,10
3541,default,block1,kids,projective,0.99,5302,MC,15,MC,MC,NA,default,27,Yes,NA,Female,English,NA,11
3541,default,block1,mia,projective,0.08,8133,pretend,16,pretend,C,NA,default,27,Yes,NA,Female,English,NA,12
3541,default,block1,mary,projective,0.88,50836,confess,17,confess,C,NA,default,27,Yes,NA,Female,English,NA,13
3541,default,block1,owen,projective,0.89,4513,inform,18,inform,C,NA,default,27,Yes,NA,Female,English,NA,14
3541,default,block1,grace,projective,0.83,13490,reveal,19,reveal,C,NA,default,27,Yes,NA,Female,English,NA,15
3541,default,block1,pizza,projective,0.97,4228,MC,20,MC,MC,NA,default,27,Yes,NA,Female,English,NA,16
3541,default,block1,muffins,projective,0.99,5156,MC,21,MC,MC,NA,default,27,Yes,NA,Female,English,NA,17
3541,default,block1,isabella,projective,0.56,3870,confirm,22,confirm,C,NA,default,27,Yes,NA,Female,English,NA,18
3541,default,block1,jon,projective,0.71,5283,discover,23,discover,C,NA,default,27,Yes,NA,Female,English,NA,19
3541,default,block1,ballet,projective,0.98,4244,MC,24,MC,MC,NA,default,27,Yes,NA,Female,English,NA,20
3541,default,block1,zoe,projective,0.87,6974,acknowledge,25,acknowledge,C,NA,default,27,Yes,NA,Female,English,NA,21
3541,default,block1,sophia,projective,0.66,4544,prove,26,prove,C,NA,default,27,Yes,NA,Female,English,NA,22
3541,default,block1,jayden,projective,0.16,5203,suggest,27,suggest,C,NA,default,27,Yes,NA,Female,English,NA,23
3541,default,block1,emma,projective,0.35,10905,admit,28,admit,C,NA,default,27,Yes,NA,Female,English,NA,24
3541,default,block1,garage,projective,0.97,2854,MC,29,MC,MC,NA,default,27,Yes,NA,Female,English,NA,25
3541,default,block1,josh,projective,0.53,3155,say,30,say,C,NA,default,27,Yes,NA,Female,English,NA,26
3541,default,block2,josie,ai,0.18999999999999995,258199,be_right,32,be_right,C,NA,default,27,Yes,NA,Female,English,NA,27
3541,default,block2,zoe,ai,0.18000000000000005,20060,acknowledge,33,acknowledge,C,NA,default,27,Yes,NA,Female,English,NA,28
3541,default,block2,mia,ai,0.18000000000000005,6210,pretend,34,pretend,C,NA,default,27,Yes,NA,Female,English,NA,29
3541,default,block2,garage,ai,0.18000000000000005,9104,MC,35,MC,MC,NA,default,27,Yes,NA,Female,English,NA,30
3541,default,block2,julian,ai,0.25,53852,demonstrate,36,demonstrate,C,NA,default,27,Yes,NA,Female,English,NA,31
3541,default,block2,grace,ai,0.26,3889,reveal,37,reveal,C,NA,default,27,Yes,NA,Female,English,NA,32
3541,default,block2,owen,ai,0.10999999999999999,7143,inform,38,inform,C,NA,default,27,Yes,NA,Female,English,NA,33
3541,default,block2,sophia,ai,0.27,5057,prove,39,prove,C,NA,default,27,Yes,NA,Female,English,NA,34
3541,default,block2,emma,ai,0.14,8183,admit,40,admit,C,NA,default,27,Yes,NA,Female,English,NA,35
3541,default,block2,ballet,ai,0.24,9099,MC,41,MC,MC,NA,default,27,Yes,NA,Female,English,NA,36
3541,default,block2,danny,ai,0.22999999999999998,3610,establish,42,establish,C,NA,default,27,Yes,NA,Female,English,NA,37
3541,default,block2,emily,ai,0.16000000000000003,4164,be_annoyed,43,be_annoyed,C,NA,default,27,Yes,NA,Female,English,NA,38
3541,default,block2,pizza,ai,0.22999999999999998,4569,MC,44,MC,MC,NA,default,27,Yes,NA,Female,English,NA,39
3541,default,block2,kids,ai,0.22999999999999998,8716,MC,45,MC,MC,NA,default,27,Yes,NA,Female,English,NA,40
3541,default,block2,tony,ai,0.20999999999999996,11511,announce,46,announce,C,NA,default,27,Yes,NA,Female,English,NA,41
3541,default,block2,isabella,ai,0.94,5893,confirm,47,confirm,C,NA,default,27,Yes,NA,Female,English,NA,42
3541,default,block2,olivia,ai,0.92,5293,see,48,see,C,NA,default,27,Yes,NA,Female,English,NA,43
3541,default,block2,hat,ai,0.18999999999999995,7189,MC,49,MC,MC,NA,default,27,Yes,NA,Female,English,NA,44
3541,default,block2,mary,ai,0.18000000000000005,4106,confess,50,confess,C,NA,default,27,Yes,NA,Female,English,NA,45
3541,default,block2,jayden,ai,0.15000000000000002,5585,suggest,51,suggest,C,NA,default,27,Yes,NA,Female,English,NA,46
3541,default,block2,jackson,ai,0.21999999999999997,9191,think,52,think,C,NA,default,27,Yes,NA,Female,English,NA,47
3541,default,block2,josh,ai,0.30000000000000004,3602,say,53,say,C,NA,default,27,Yes,NA,Female,English,NA,48
3541,default,block2,frank,ai,0.18999999999999995,5236,hear,54,hear,C,NA,default,27,Yes,NA,Female,English,NA,49
3541,default,block2,charley,ai,0.19999999999999996,2293,know,55,know,C,NA,default,27,Yes,NA,Female,English,NA,50
3541,default,block2,muffins,ai,0.19999999999999996,1366,MC,56,MC,MC,NA,default,27,Yes,NA,Female,English,NA,51
3541,default,block2,jon,ai,0.26,7443,discover,57,discover,C,NA,default,27,Yes,NA,Female,English,NA,52
3355,default,block1,olivia,ai,0.09999999999999998,24499,reveal,5,reveal,C,NA,default,19,Yes,I found this study to be rather confusing as the grammar was off.,Female,English,NA,1
3355,default,block1,pizza,ai,0.16000000000000003,23262,MC,6,MC,MC,NA,default,19,Yes,I found this study to be rather confusing as the grammar was off.,Female,English,NA,2
3355,default,block1,josie,ai,0.08999999999999997,19987,announce,7,announce,C,NA,default,19,Yes,I found this study to be rather confusing as the grammar was off.,Female,English,NA,3
3355,default,block1,emma,ai,0.95,43024,be_annoyed,8,be_annoyed,C,NA,default,19,Yes,I found this study to be rather confusing as the grammar was off.,Female,English,NA,4
3355,default,block1,mia,ai,0.040000000000000036,18492,establish,9,establish,C,NA,default,19,Yes,I found this study to be rather confusing as the grammar was off.,Female,English,NA,5
3355,default,block1,hat,ai,0.5,19211,MC,10,MC,MC,NA,default,19,Yes,I found this study to be rather confusing as the grammar was off.,Female,English,NA,6
3355,default,block1,julian,ai,0.49,21995,know,11,know,C,NA,default,19,Yes,I found this study to be rather confusing as the grammar was off.,Female,English,NA,7
3355,default,block1,mary,ai,0.65,28524,be_right,12,be_right,C,NA,default,19,Yes,I found this study to be rather confusing as the grammar was off.,Female,English,NA,8
3355,default,block1,ballet,ai,0.51,10338,MC,13,MC,MC,NA,default,19,Yes,I found this study to be rather confusing as the grammar was off.,Female,English,NA,9
3355,default,block1,tony,ai,0.16000000000000003,14020,acknowledge,14,acknowledge,C,NA,default,19,Yes,I found this study to be rather confusing as the grammar was off.,Female,English,NA,10
3355,default,block1,danny,ai,0.26,20854,suggest,15,suggest,C,NA,default,19,Yes,I found this study to be rather confusing as the grammar was off.,Female,English,NA,11
3355,default,block1,sophia,ai,0.36,19840,prove,16,prove,C,NA,default,19,Yes,I found this study to be rather confusing as the grammar was off.,Female,English,NA,12
3355,default,block1,muffins,ai,0.97,9992,MC,17,MC,MC,NA,default,19,Yes,I found this study to be rather confusing as the grammar was off.,Female,English,NA,13
3355,default,block1,grace,ai,0.8,41770,pretend,18,pretend,C,NA,default,19,Yes,I found this study to be rather confusing as the grammar was off.,Female,English,NA,14
3355,default,block1,isabella,ai,0.92,11979,confess,19,confess,C,NA,default,19,Yes,I found this study to be rather confusing as the grammar was off.,Female,English,NA,15
3355,default,block1,garage,ai,0.98,6976,MC,20,MC,MC,NA,default,19,Yes,I found this study to be rather confusing as the grammar was off.,Female,English,NA,16
3355,default,block1,emily,ai,0.37,13679,admit,21,admit,C,NA,default,19,Yes,I found this study to be rather confusing as the grammar was off.,Female,English,NA,17
3355,default,block1,kids,ai,0.98,7899,MC,22,MC,MC,NA,default,19,Yes,I found this study to be rather confusing as the grammar was off.,Female,English,NA,18
3355,default,block1,zoe,ai,0.22999999999999998,15649,inform,23,inform,C,NA,default,19,Yes,I found this study to be rather confusing as the grammar was off.,Female,English,NA,19
3355,default,block1,jackson,ai,0.75,12970,say,24,say,C,NA,default,19,Yes,I found this study to be rather confusing as the grammar was off.,Female,English,NA,20
3355,default,block1,charley,ai,0.31999999999999995,8307,discover,25,discover,C,NA,default,19,Yes,I found this study to be rather confusing as the grammar was off.,Female,English,NA,21
3355,default,block1,jayden,ai,0.95,12683,hear,26,hear,C,NA,default,19,Yes,I found this study to be rather confusing as the grammar was off.,Female,English,NA,22
3355,default,block1,jon,ai,0.44999999999999996,13588,demonstrate,27,demonstrate,C,NA,default,19,Yes,I found this study to be rather confusing as the grammar was off.,Female,English,NA,23
3355,default,block1,josh,ai,0.6,13008,confirm,28,confirm,C,NA,default,19,Yes,I found this study to be rather confusing as the grammar was off.,Female,English,NA,24
3355,default,block1,frank,ai,0.29000000000000004,12036,think,29,think,C,NA,default,19,Yes,I found this study to be rather confusing as the grammar was off.,Female,English,NA,25
3355,default,block1,owen,ai,0.96,10167,see,30,see,C,NA,default,19,Yes,I found this study to be rather confusing as the grammar was off.,Female,English,NA,26
3355,default,block2,julian,projective,0.86,22360,know,32,know,C,NA,default,19,Yes,I found this study to be rather confusing as the grammar was off.,Female,English,NA,27
3355,default,block2,jayden,projective,0.88,11832,hear,33,hear,C,NA,default,19,Yes,I found this study to be rather confusing as the grammar was off.,Female,English,NA,28
3355,default,block2,josie,projective,0.38,7390,announce,34,announce,C,NA,default,19,Yes,I found this study to be rather confusing as the grammar was off.,Female,English,NA,29
3355,default,block2,emma,projective,0.78,12335,be_annoyed,35,be_annoyed,C,NA,default,19,Yes,I found this study to be rather confusing as the grammar was off.,Female,English,NA,30
3355,default,block2,josh,projective,0.15,7883,confirm,36,confirm,C,NA,default,19,Yes,I found this study to be rather confusing as the grammar was off.,Female,English,NA,31
3355,default,block2,tony,projective,0.83,8682,acknowledge,37,acknowledge,C,NA,default,19,Yes,I found this study to be rather confusing as the grammar was off.,Female,English,NA,32
3355,default,block2,frank,projective,0.02,6222,think,38,think,C,NA,default,19,Yes,I found this study to be rather confusing as the grammar was off.,Female,English,NA,33
3355,default,block2,danny,projective,0,10947,suggest,39,suggest,C,NA,default,19,Yes,I found this study to be rather confusing as the grammar was off.,Female,English,NA,34
3355,default,block2,pizza,projective,0.94,11443,MC,40,MC,MC,NA,default,19,Yes,I found this study to be rather confusing as the grammar was off.,Female,English,NA,35
3355,default,block2,zoe,projective,0.78,7842,inform,41,inform,C,NA,default,19,Yes,I found this study to be rather confusing as the grammar was off.,Female,English,NA,36
3355,default,block2,muffins,projective,0.95,6975,MC,42,MC,MC,NA,default,19,Yes,I found this study to be rather confusing as the grammar was off.,Female,English,NA,37
3355,default,block2,jon,projective,0.18,5766,demonstrate,43,demonstrate,C,NA,default,19,Yes,I found this study to be rather confusing as the grammar was off.,Female,English,NA,38
3355,default,block2,hat,projective,0.98,5679,MC,44,MC,MC,NA,default,19,Yes,I found this study to be rather confusing as the grammar was off.,Female,English,NA,39
3355,default,block2,olivia,projective,0.56,7817,reveal,45,reveal,C,NA,default,19,Yes,I found this study to be rather confusing as the grammar was off.,Female,English,NA,40
3355,default,block2,charley,projective,0.93,6476,discover,46,discover,C,NA,default,19,Yes,I found this study to be rather confusing as the grammar was off.,Female,English,NA,41
3355,default,block2,owen,projective,0.12,7295,see,47,see,C,NA,default,19,Yes,I found this study to be rather confusing as the grammar was off.,Female,English,NA,42
3355,default,block2,emily,projective,0.63,7065,admit,48,admit,C,NA,default,19,Yes,I found this study to be rather confusing as the grammar was off.,Female,English,NA,43
3355,default,block2,isabella,projective,0.7,10597,confess,49,confess,C,NA,default,19,Yes,I found this study to be rather confusing as the grammar was off.,Female,English,NA,44
3355,default,block2,kids,projective,0.97,6796,MC,50,MC,MC,NA,default,19,Yes,I found this study to be rather confusing as the grammar was off.,Female,English,NA,45
3355,default,block2,mary,projective,0.34,6300,be_right,51,be_right,C,NA,default,19,Yes,I found this study to be rather confusing as the grammar was off.,Female,English,NA,46
3355,default,block2,mia,projective,0.37,6471,establish,52,establish,C,NA,default,19,Yes,I found this study to be rather confusing as the grammar was off.,Female,English,NA,47
3355,default,block2,jackson,projective,0.36,5635,say,53,say,C,NA,default,19,Yes,I found this study to be rather confusing as the grammar was off.,Female,English,NA,48
3355,default,block2,grace,projective,0.04,7544,pretend,54,pretend,C,NA,default,19,Yes,I found this study to be rather confusing as the grammar was off.,Female,English,NA,49
3355,default,block2,ballet,projective,1,5192,MC,55,MC,MC,NA,default,19,Yes,I found this study to be rather confusing as the grammar was off.,Female,English,NA,50
3355,default,block2,garage,projective,0.96,5205,MC,56,MC,MC,NA,default,19,Yes,I found this study to be rather confusing as the grammar was off.,Female,English,NA,51
3355,default,block2,sophia,projective,0.16,6590,prove,57,prove,C,NA,default,19,Yes,I found this study to be rather confusing as the grammar was off.,Female,English,NA,52
3364,default,block1,danny,ai,0.97,9276,suggest,5,suggest,C,NA,default,19,Yes,NA,Female,English,NA,1
3364,default,block1,frank,ai,0.96,9602,confess,6,confess,C,NA,default,19,Yes,NA,Female,English,NA,2
3364,default,block1,jackson,ai,0.97,6922,inform,7,inform,C,NA,default,19,Yes,NA,Female,English,NA,3
3364,default,block1,hat,ai,0.44999999999999996,7367,MC,8,MC,MC,NA,default,19,Yes,NA,Female,English,NA,4
3364,default,block1,pizza,ai,0.45999999999999996,32131,MC,9,MC,MC,NA,default,19,Yes,NA,Female,English,NA,5
3364,default,block1,sophia,ai,0.99,5325,confirm,10,confirm,C,NA,default,19,Yes,NA,Female,English,NA,6
3364,default,block1,grace,ai,0.95,6534,prove,11,prove,C,NA,default,19,Yes,NA,Female,English,NA,7
3364,default,block1,isabella,ai,0.96,3777,demonstrate,12,demonstrate,C,NA,default,19,Yes,NA,Female,English,NA,8
3364,default,block1,garage,ai,0.47,10063,MC,13,MC,MC,NA,default,19,Yes,NA,Female,English,NA,9
3364,default,block1,mia,ai,0.96,6421,be_annoyed,14,be_annoyed,C,NA,default,19,Yes,NA,Female,English,NA,10
3364,default,block1,owen,ai,0.96,5317,acknowledge,15,acknowledge,C,NA,default,19,Yes,NA,Female,English,NA,11
3364,default,block1,mary,ai,0.96,4266,admit,16,admit,C,NA,default,19,Yes,NA,Female,English,NA,12
3364,default,block1,emma,ai,0.97,6086,announce,17,announce,C,NA,default,19,Yes,NA,Female,English,NA,13
3364,default,block1,jon,ai,0.98,14207,discover,18,discover,C,NA,default,19,Yes,NA,Female,English,NA,14
3364,default,block1,jayden,ai,0.98,3053,think,19,think,C,NA,default,19,Yes,NA,Female,English,NA,15
3364,default,block1,julian,ai,0.94,4573,be_right,20,be_right,C,NA,default,19,Yes,NA,Female,English,NA,16
3364,default,block1,josh,ai,1,4612,pretend,21,pretend,C,NA,default,19,Yes,NA,Female,English,NA,17
3364,default,block1,emily,ai,0.97,3784,hear,22,hear,C,NA,default,19,Yes,NA,Female,English,NA,18
3364,default,block1,zoe,ai,0.96,2960,know,23,know,C,NA,default,19,Yes,NA,Female,English,NA,19
3364,default,block1,ballet,ai,0.4,7551,MC,24,MC,MC,NA,default,19,Yes,NA,Female,English,NA,20
3364,default,block1,tony,ai,0.98,5539,see,25,see,C,NA,default,19,Yes,NA,Female,English,NA,21
3364,default,block1,muffins,ai,0.33999999999999997,4110,MC,26,MC,MC,NA,default,19,Yes,NA,Female,English,NA,22
3364,default,block1,charley,ai,0.99,4047,establish,27,establish,C,NA,default,19,Yes,NA,Female,English,NA,23
3364,default,block1,josie,ai,0.97,4891,say,28,say,C,NA,default,19,Yes,NA,Female,English,NA,24
3364,default,block1,kids,ai,0.32999999999999996,4339,MC,29,MC,MC,NA,default,19,Yes,NA,Female,English,NA,25
3364,default,block1,olivia,ai,0.96,4602,reveal,30,reveal,C,NA,default,19,Yes,NA,Female,English,NA,26
3364,default,block2,pizza,projective,0.94,27047,MC,32,MC,MC,NA,default,19,Yes,NA,Female,English,NA,27
3364,default,block2,ballet,projective,0.96,4018,MC,33,MC,MC,NA,default,19,Yes,NA,Female,English,NA,28
3364,default,block2,kids,projective,0.97,3538,MC,34,MC,MC,NA,default,19,Yes,NA,Female,English,NA,29
3364,default,block2,emily,projective,0.98,7445,hear,35,hear,C,NA,default,19,Yes,NA,Female,English,NA,30
3364,default,block2,emma,projective,0.96,8467,announce,36,announce,C,NA,default,19,Yes,NA,Female,English,NA,31
3364,default,block2,owen,projective,0.86,3580,acknowledge,37,acknowledge,C,NA,default,19,Yes,NA,Female,English,NA,32
3364,default,block2,frank,projective,0.91,7186,confess,38,confess,C,NA,default,19,Yes,NA,Female,English,NA,33
3364,default,block2,josh,projective,0.03,12268,pretend,39,pretend,C,NA,default,19,Yes,NA,Female,English,NA,34
3364,default,block2,isabella,projective,0.08,7483,demonstrate,40,demonstrate,C,NA,default,19,Yes,NA,Female,English,NA,35
3364,default,block2,charley,projective,0.58,5544,establish,41,establish,C,NA,default,19,Yes,NA,Female,English,NA,36
3364,default,block2,jayden,projective,0.04,4623,think,42,think,C,NA,default,19,Yes,NA,Female,English,NA,37
3364,default,block2,olivia,projective,0.96,3441,reveal,43,reveal,C,NA,default,19,Yes,NA,Female,English,NA,38
3364,default,block2,danny,projective,0.02,2872,suggest,44,suggest,C,NA,default,19,Yes,NA,Female,English,NA,39
3364,default,block2,mia,projective,0.89,4612,be_annoyed,45,be_annoyed,C,NA,default,19,Yes,NA,Female,English,NA,40
3364,default,block2,josie,projective,0.23,9438,say,46,say,C,NA,default,19,Yes,NA,Female,English,NA,41
3364,default,block2,jon,projective,0.92,5507,discover,47,discover,C,NA,default,19,Yes,NA,Female,English,NA,42
3364,default,block2,grace,projective,0.51,9240,prove,48,prove,C,NA,default,19,Yes,NA,Female,English,NA,43
3364,default,block2,tony,projective,0.8,15121,see,49,see,C,NA,default,19,Yes,NA,Female,English,NA,44
3364,default,block2,muffins,projective,0.81,9199,MC,50,MC,MC,NA,default,19,Yes,NA,Female,English,NA,45
3364,default,block2,zoe,projective,0.85,4816,know,51,know,C,NA,default,19,Yes,NA,Female,English,NA,46
3364,default,block2,garage,projective,0.98,21564,MC,52,MC,MC,NA,default,19,Yes,NA,Female,English,NA,47
3364,default,block2,jackson,projective,0.91,3976,inform,53,inform,C,NA,default,19,Yes,NA,Female,English,NA,48
3364,default,block2,julian,projective,0.09,5632,be_right,54,be_right,C,NA,default,19,Yes,NA,Female,English,NA,49
3364,default,block2,hat,projective,0.95,3117,MC,55,MC,MC,NA,default,19,Yes,NA,Female,English,NA,50
3364,default,block2,sophia,projective,0.17,7306,confirm,56,confirm,C,NA,default,19,Yes,NA,Female,English,NA,51
3364,default,block2,mary,projective,0.87,4596,admit,57,admit,C,NA,default,19,Yes,NA,Female,English,NA,52
3456,default,block1,ballet,ai,0.92,29378,MC,5,MC,MC,NA,default,24,Yes,NA,Female,English,NA,1
3456,default,block1,josie,ai,0.17000000000000004,10256,demonstrate,6,demonstrate,C,NA,default,24,Yes,NA,Female,English,NA,2
3456,default,block1,kids,ai,0.92,6158,MC,7,MC,MC,NA,default,24,Yes,NA,Female,English,NA,3
3456,default,block1,emily,ai,0.15000000000000002,13085,discover,8,discover,C,NA,default,24,Yes,NA,Female,English,NA,4
3456,default,block1,jayden,ai,0.06999999999999995,12422,pretend,9,pretend,C,NA,default,24,Yes,NA,Female,English,NA,5
3456,default,block1,zoe,ai,0.030000000000000027,6204,establish,10,establish,C,NA,default,24,Yes,NA,Female,English,NA,6
3456,default,block1,pizza,ai,0.91,61237,MC,11,MC,MC,NA,default,24,Yes,NA,Female,English,NA,7
3456,default,block1,jackson,ai,0,6051,acknowledge,12,acknowledge,C,NA,default,24,Yes,NA,Female,English,NA,8
3456,default,block1,jon,ai,0.030000000000000027,5304,announce,13,announce,C,NA,default,24,Yes,NA,Female,English,NA,9
3456,default,block1,muffins,ai,0.78,5797,MC,14,MC,MC,NA,default,24,Yes,NA,Female,English,NA,10
3456,default,block1,mia,ai,0.030000000000000027,11167,see,15,see,C,NA,default,24,Yes,NA,Female,English,NA,11
3456,default,block1,frank,ai,0.06000000000000005,8234,think,16,think,C,NA,default,24,Yes,NA,Female,English,NA,12
3456,default,block1,owen,ai,0.07999999999999996,10714,prove,17,prove,C,NA,default,24,Yes,NA,Female,English,NA,13
3456,default,block1,grace,ai,0.10999999999999999,4445,hear,18,hear,C,NA,default,24,Yes,NA,Female,English,NA,14
3456,default,block1,julian,ai,0.13,3885,know,19,know,C,NA,default,24,Yes,NA,Female,English,NA,15
3456,default,block1,garage,ai,0.76,6927,MC,20,MC,MC,NA,default,24,Yes,NA,Female,English,NA,16
3456,default,block1,danny,ai,0.08999999999999997,66784,reveal,21,reveal,C,NA,default,24,Yes,NA,Female,English,NA,17
3456,default,block1,sophia,ai,0.06000000000000005,40596,confirm,22,confirm,C,NA,default,24,Yes,NA,Female,English,NA,18
3456,default,block1,tony,ai,0.040000000000000036,18119,be_right,23,be_right,C,NA,default,24,Yes,NA,Female,English,NA,19
3456,default,block1,isabella,ai,0.06000000000000005,6014,inform,24,inform,C,NA,default,24,Yes,NA,Female,English,NA,20
3456,default,block1,olivia,ai,0,152419,admit,25,admit,C,NA,default,24,Yes,NA,Female,English,NA,21
3456,default,block1,mary,ai,0.040000000000000036,17127,say,26,say,C,NA,default,24,Yes,NA,Female,English,NA,22
3456,default,block1,hat,ai,0.94,3619,MC,27,MC,MC,NA,default,24,Yes,NA,Female,English,NA,23
3456,default,block1,josh,ai,0.06000000000000005,8123,suggest,28,suggest,C,NA,default,24,Yes,NA,Female,English,NA,24
3456,default,block1,emma,ai,0.020000000000000018,4897,confess,29,confess,C,NA,default,24,Yes,NA,Female,English,NA,25
3456,default,block1,charley,ai,0.010000000000000009,6139,be_annoyed,30,be_annoyed,C,NA,default,24,Yes,NA,Female,English,NA,26
3456,default,block2,isabella,projective,0.77,14414,inform,32,inform,C,NA,default,24,Yes,NA,Female,English,NA,27
3456,default,block2,sophia,projective,0.42,4807,confirm,33,confirm,C,NA,default,24,Yes,NA,Female,English,NA,28
3456,default,block2,pizza,projective,0.98,3953,MC,34,MC,MC,NA,default,24,Yes,NA,Female,English,NA,29
3456,default,block2,mary,projective,0.49,4427,say,35,say,C,NA,default,24,Yes,NA,Female,English,NA,30
3456,default,block2,mia,projective,0.96,3817,see,36,see,C,NA,default,24,Yes,NA,Female,English,NA,31
3456,default,block2,jackson,projective,0.81,3764,acknowledge,37,acknowledge,C,NA,default,24,Yes,NA,Female,English,NA,32
3456,default,block2,josie,projective,0.38,38282,demonstrate,38,demonstrate,C,NA,default,24,Yes,NA,Female,English,NA,33
3456,default,block2,tony,projective,0.11,3746,be_right,39,be_right,C,NA,default,24,Yes,NA,Female,English,NA,34
3456,default,block2,charley,projective,0.84,4705,be_annoyed,40,be_annoyed,C,NA,default,24,Yes,NA,Female,English,NA,35
3456,default,block2,grace,projective,0.93,2663,hear,41,hear,C,NA,default,24,Yes,NA,Female,English,NA,36
3456,default,block2,frank,projective,0.19,2621,think,42,think,C,NA,default,24,Yes,NA,Female,English,NA,37
3456,default,block2,jayden,projective,0.02,4190,pretend,43,pretend,C,NA,default,24,Yes,NA,Female,English,NA,38
3456,default,block2,danny,projective,1,4437,reveal,44,reveal,C,NA,default,24,Yes,NA,Female,English,NA,39
3456,default,block2,owen,projective,0.24,4999,prove,45,prove,C,NA,default,24,Yes,NA,Female,English,NA,40
3456,default,block2,ballet,projective,0.99,4112,MC,46,MC,MC,NA,default,24,Yes,NA,Female,English,NA,41
3456,default,block2,muffins,projective,1,2988,MC,47,MC,MC,NA,default,24,Yes,NA,Female,English,NA,42
3456,default,block2,hat,projective,1,3738,MC,48,MC,MC,NA,default,24,Yes,NA,Female,English,NA,43
3456,default,block2,garage,projective,0.96,2703,MC,49,MC,MC,NA,default,24,Yes,NA,Female,English,NA,44
3456,default,block2,josh,projective,0.27,4473,suggest,50,suggest,C,NA,default,24,Yes,NA,Female,English,NA,45
3456,default,block2,jon,projective,0.18,4464,announce,51,announce,C,NA,default,24,Yes,NA,Female,English,NA,46
3456,default,block2,kids,projective,0.95,3807,MC,52,MC,MC,NA,default,24,Yes,NA,Female,English,NA,47
3456,default,block2,emily,projective,0.89,4596,discover,53,discover,C,NA,default,24,Yes,NA,Female,English,NA,48
3456,default,block2,emma,projective,0.33,6257,confess,54,confess,C,NA,default,24,Yes,NA,Female,English,NA,49
3456,default,block2,julian,projective,0.88,3883,know,55,know,C,NA,default,24,Yes,NA,Female,English,NA,50
3456,default,block2,olivia,projective,0.7,4393,admit,56,admit,C,NA,default,24,Yes,NA,Female,English,NA,51
3456,default,block2,zoe,projective,0.3,2378,establish,57,establish,C,NA,default,24,Yes,NA,Female,English,NA,52
3393,default,block1,muffins,ai,0.17000000000000004,66279,MC,5,MC,MC,NA,default,28,Yes,NA,Male,English,NA,1
3393,default,block1,jackson,ai,0.18000000000000005,59886,announce,6,announce,C,NA,default,28,Yes,NA,Male,English,NA,2
3393,default,block1,pizza,ai,0.53,25440,MC,7,MC,MC,NA,default,28,Yes,NA,Male,English,NA,3
3393,default,block1,mary,ai,0.32999999999999996,19407,pretend,8,pretend,C,NA,default,28,Yes,NA,Male,English,NA,4
3393,default,block1,owen,ai,0.49,101260,be_right,9,be_right,C,NA,default,28,Yes,NA,Male,English,NA,5
3393,default,block1,danny,ai,0.36,24312,discover,10,discover,C,NA,default,28,Yes,NA,Male,English,NA,6
3393,default,block1,julian,ai,0.47,19425,know,11,know,C,NA,default,28,Yes,NA,Male,English,NA,7
3393,default,block1,isabella,ai,0.5700000000000001,26230,confirm,12,confirm,C,NA,default,28,Yes,NA,Male,English,NA,8
3393,default,block1,hat,ai,0.69,13093,MC,13,MC,MC,NA,default,28,Yes,NA,Male,English,NA,9
3393,default,block1,charley,ai,0.47,20203,reveal,14,reveal,C,NA,default,28,Yes,NA,Male,English,NA,10
3393,default,block1,jayden,ai,0.49,62099,demonstrate,15,demonstrate,C,NA,default,28,Yes,NA,Male,English,NA,11
3393,default,block1,garage,ai,0.92,33546,MC,16,MC,MC,NA,default,28,Yes,NA,Male,English,NA,12
3393,default,block1,emma,ai,0.79,12596,establish,17,establish,C,NA,default,28,Yes,NA,Male,English,NA,13
3393,default,block1,tony,ai,0.8,16153,see,18,see,C,NA,default,28,Yes,NA,Male,English,NA,14
3393,default,block1,emily,ai,0.6599999999999999,90938,say,19,say,C,NA,default,28,Yes,NA,Male,English,NA,15
3393,default,block1,jon,ai,0.76,9019,hear,20,hear,C,NA,default,28,Yes,NA,Male,English,NA,16
3393,default,block1,sophia,ai,0.72,9430,acknowledge,21,acknowledge,C,NA,default,28,Yes,NA,Male,English,NA,17
3393,default,block1,josie,ai,0.61,34395,inform,22,inform,C,NA,default,28,Yes,NA,Male,English,NA,18
3393,default,block1,zoe,ai,0.5,17095,confess,23,confess,C,NA,default,28,Yes,NA,Male,English,NA,19
3393,default,block1,mia,ai,0.6699999999999999,21324,suggest,24,suggest,C,NA,default,28,Yes,NA,Male,English,NA,20
3393,default,block1,frank,ai,0.84,7065,prove,25,prove,C,NA,default,28,Yes,NA,Male,English,NA,21
3393,default,block1,kids,ai,0.89,19291,MC,26,MC,MC,NA,default,28,Yes,NA,Male,English,NA,22
3393,default,block1,josh,ai,0.53,26769,admit,27,admit,C,NA,default,28,Yes,NA,Male,English,NA,23
3393,default,block1,grace,ai,0.5,34349,be_annoyed,28,be_annoyed,C,NA,default,28,Yes,NA,Male,English,NA,24
3393,default,block1,olivia,ai,0.89,30384,think,29,think,C,NA,default,28,Yes,NA,Male,English,NA,25
3393,default,block1,ballet,ai,0.88,17982,MC,30,MC,MC,NA,default,28,Yes,NA,Male,English,NA,26
3393,default,block2,charley,projective,1,41824,reveal,32,reveal,C,NA,default,28,Yes,NA,Male,English,NA,27
3393,default,block2,olivia,projective,0.52,19982,think,33,think,C,NA,default,28,Yes,NA,Male,English,NA,28
3393,default,block2,garage,projective,1,64935,MC,34,MC,MC,NA,default,28,Yes,NA,Male,English,NA,29
3393,default,block2,isabella,projective,0.12,56186,confirm,35,confirm,C,NA,default,28,Yes,NA,Male,English,NA,30
3393,default,block2,jayden,projective,0.55,9444,demonstrate,36,demonstrate,C,NA,default,28,Yes,NA,Male,English,NA,31
3393,default,block2,mary,projective,0.21,41059,pretend,37,pretend,C,NA,default,28,Yes,NA,Male,English,NA,32
3393,default,block2,muffins,projective,0.95,27903,MC,38,MC,MC,NA,default,28,Yes,NA,Male,English,NA,33
3393,default,block2,hat,projective,0.94,10566,MC,39,MC,MC,NA,default,28,Yes,NA,Male,English,NA,34
3393,default,block2,grace,projective,0.63,39924,be_annoyed,40,be_annoyed,C,NA,default,28,Yes,NA,Male,English,NA,35
3393,default,block2,josie,projective,0.79,23810,inform,41,inform,C,NA,default,28,Yes,NA,Male,English,NA,36
3393,default,block2,jon,projective,0.46,16470,hear,42,hear,C,NA,default,28,Yes,NA,Male,English,NA,37
3393,default,block2,frank,projective,0.41,12919,prove,43,prove,C,NA,default,28,Yes,NA,Male,English,NA,38
3393,default,block2,emily,projective,0.94,72816,say,44,say,C,NA,default,28,Yes,NA,Male,English,NA,39
3393,default,block2,sophia,projective,0.67,9499,acknowledge,45,acknowledge,C,NA,default,28,Yes,NA,Male,English,NA,40
3393,default,block2,kids,projective,0.94,11497,MC,46,MC,MC,NA,default,28,Yes,NA,Male,English,NA,41
3393,default,block2,owen,projective,0.46,39468,be_right,47,be_right,C,NA,default,28,Yes,NA,Male,English,NA,42
3393,default,block2,jackson,projective,0.51,21472,announce,48,announce,C,NA,default,28,Yes,NA,Male,English,NA,43
3393,default,block2,zoe,projective,0.88,11185,confess,49,confess,C,NA,default,28,Yes,NA,Male,English,NA,44
3393,default,block2,ballet,projective,0.92,13498,MC,50,MC,MC,NA,default,28,Yes,NA,Male,English,NA,45
3393,default,block2,julian,projective,0.87,39474,know,51,know,C,NA,default,28,Yes,NA,Male,English,NA,46
3393,default,block2,mia,projective,0.36,41672,suggest,52,suggest,C,NA,default,28,Yes,NA,Male,English,NA,47
3393,default,block2,danny,projective,0.78,13106,discover,53,discover,C,NA,default,28,Yes,NA,Male,English,NA,48
3393,default,block2,pizza,projective,0.92,10390,MC,54,MC,MC,NA,default,28,Yes,NA,Male,English,NA,49
3393,default,block2,emma,projective,0.63,11331,establish,55,establish,C,NA,default,28,Yes,NA,Male,English,NA,50
3393,default,block2,tony,projective,0.57,15624,see,56,see,C,NA,default,28,Yes,NA,Male,English,NA,51
3393,default,block2,josh,projective,0.77,13278,admit,57,admit,C,NA,default,28,Yes,NA,Male,English,NA,52
3535,default,block1,grace,projective,0,117605,prove,5,prove,C,NA,default,22,Yes,NA,Female,English,NA,1
3535,default,block1,owen,projective,1,17536,inform,6,inform,C,NA,default,22,Yes,NA,Female,English,NA,2
3535,default,block1,garage,projective,0.73,10724,MC,7,MC,MC,NA,default,22,Yes,NA,Female,English,NA,3
3535,default,block1,hat,projective,0.81,5734,MC,8,MC,MC,NA,default,22,Yes,NA,Female,English,NA,4
3535,default,block1,kids,projective,0.63,3591,MC,9,MC,MC,NA,default,22,Yes,NA,Female,English,NA,5
3535,default,block1,emma,projective,0.7,2887,say,10,say,C,NA,default,22,Yes,NA,Female,English,NA,6
3535,default,block1,josie,projective,0.83,3770,know,11,know,C,NA,default,22,Yes,NA,Female,English,NA,7
3535,default,block1,sophia,projective,0.93,6286,reveal,12,reveal,C,NA,default,22,Yes,NA,Female,English,NA,8
3535,default,block1,jon,projective,0.22,6398,hear,13,hear,C,NA,default,22,Yes,NA,Female,English,NA,9
3535,default,block1,charley,projective,0.78,4272,admit,14,admit,C,NA,default,22,Yes,NA,Female,English,NA,10
3535,default,block1,tony,projective,0.72,3000,confirm,15,confirm,C,NA,default,22,Yes,NA,Female,English,NA,11
3535,default,block1,olivia,projective,0.81,2799,be_right,16,be_right,C,NA,default,22,Yes,NA,Female,English,NA,12
3535,default,block1,pizza,projective,0.99,5971,MC,17,MC,MC,NA,default,22,Yes,NA,Female,English,NA,13
3535,default,block1,mary,projective,0.93,7902,announce,18,announce,C,NA,default,22,Yes,NA,Female,English,NA,14
3535,default,block1,jackson,projective,0.81,2563,suggest,19,suggest,C,NA,default,22,Yes,NA,Female,English,NA,15
3535,default,block1,isabella,projective,0.86,3074,pretend,20,pretend,C,NA,default,22,Yes,NA,Female,English,NA,16
3535,default,block1,danny,projective,0.87,1893,establish,21,establish,C,NA,default,22,Yes,NA,Female,English,NA,17
3535,default,block1,frank,projective,0.99,7468,confess,22,confess,C,NA,default,22,Yes,NA,Female,English,NA,18
3535,default,block1,julian,projective,0.96,3785,discover,23,discover,C,NA,default,22,Yes,NA,Female,English,NA,19
3535,default,block1,ballet,projective,0.9,2322,MC,24,MC,MC,NA,default,22,Yes,NA,Female,English,NA,20
3535,default,block1,jayden,projective,0.12,8257,think,25,think,C,NA,default,22,Yes,NA,Female,English,NA,21
3535,default,block1,josh,projective,0.49,13125,be_annoyed,26,be_annoyed,C,NA,default,22,Yes,NA,Female,English,NA,22
3535,default,block1,mia,projective,0.66,1876,demonstrate,27,demonstrate,C,NA,default,22,Yes,NA,Female,English,NA,23
3535,default,block1,zoe,projective,0.53,9010,acknowledge,28,acknowledge,C,NA,default,22,Yes,NA,Female,English,NA,24
3535,default,block1,emily,projective,0.31,9970,see,29,see,C,NA,default,22,Yes,NA,Female,English,NA,25
3535,default,block1,muffins,projective,0.84,18412,MC,30,MC,MC,NA,default,22,Yes,NA,Female,English,NA,26
3535,default,block2,frank,ai,0.5,14473,confess,32,confess,C,NA,default,22,Yes,NA,Female,English,NA,27
3535,default,block2,josie,ai,0.51,3041,know,33,know,C,NA,default,22,Yes,NA,Female,English,NA,28
3535,default,block2,owen,ai,0.5,3195,inform,34,inform,C,NA,default,22,Yes,NA,Female,English,NA,29
3535,default,block2,kids,ai,0.51,3551,MC,35,MC,MC,NA,default,22,Yes,NA,Female,English,NA,30
3535,default,block2,emma,ai,0.51,3754,say,36,say,C,NA,default,22,Yes,NA,Female,English,NA,31
3535,default,block2,jayden,ai,0.51,9301,think,37,think,C,NA,default,22,Yes,NA,Female,English,NA,32
3535,default,block2,mary,ai,0.51,22659,announce,38,announce,C,NA,default,22,Yes,NA,Female,English,NA,33
3535,default,block2,charley,ai,0.5,1156,admit,39,admit,C,NA,default,22,Yes,NA,Female,English,NA,34
3535,default,block2,mia,ai,0.5,4562,demonstrate,40,demonstrate,C,NA,default,22,Yes,NA,Female,English,NA,35
3535,default,block2,jon,ai,0.51,1788,hear,41,hear,C,NA,default,22,Yes,NA,Female,English,NA,36
3535,default,block2,isabella,ai,0.52,2701,pretend,42,pretend,C,NA,default,22,Yes,NA,Female,English,NA,37
3535,default,block2,sophia,ai,0.51,3519,reveal,43,reveal,C,NA,default,22,Yes,NA,Female,English,NA,38
3535,default,block2,grace,ai,0.52,2128,prove,44,prove,C,NA,default,22,Yes,NA,Female,English,NA,39
3535,default,block2,julian,ai,0.51,1973,discover,45,discover,C,NA,default,22,Yes,NA,Female,English,NA,40
3535,default,block2,josh,ai,0.51,2314,be_annoyed,46,be_annoyed,C,NA,default,22,Yes,NA,Female,English,NA,41
3535,default,block2,jackson,ai,0.52,2523,suggest,47,suggest,C,NA,default,22,Yes,NA,Female,English,NA,42
3535,default,block2,pizza,ai,0.51,1804,MC,48,MC,MC,NA,default,22,Yes,NA,Female,English,NA,43
3535,default,block2,garage,ai,0.51,2111,MC,49,MC,MC,NA,default,22,Yes,NA,Female,English,NA,44
3535,default,block2,ballet,ai,0.52,1852,MC,50,MC,MC,NA,default,22,Yes,NA,Female,English,NA,45
3535,default,block2,muffins,ai,0.5,2088,MC,51,MC,MC,NA,default,22,Yes,NA,Female,English,NA,46
3535,default,block2,zoe,ai,0.51,2062,acknowledge,52,acknowledge,C,NA,default,22,Yes,NA,Female,English,NA,47
3535,default,block2,hat,ai,0.5,3074,MC,53,MC,MC,NA,default,22,Yes,NA,Female,English,NA,48
3535,default,block2,olivia,ai,0.51,2734,be_right,54,be_right,C,NA,default,22,Yes,NA,Female,English,NA,49
3535,default,block2,emily,ai,0.5,2394,see,55,see,C,NA,default,22,Yes,NA,Female,English,NA,50
3535,default,block2,tony,ai,0.51,2597,confirm,56,confirm,C,NA,default,22,Yes,NA,Female,English,NA,51
3535,default,block2,danny,ai,0.51,3511,establish,57,establish,C,NA,default,22,Yes,NA,Female,English,NA,52
3530,default,block1,emma,ai,0.07999999999999996,25323,confess,5,confess,C,NA,default,24,Yes,NA,Female,English,NA,1
3530,default,block1,hat,ai,0.92,7599,MC,6,MC,MC,NA,default,24,Yes,NA,Female,English,NA,2
3530,default,block1,emily,ai,0.09999999999999998,8400,prove,7,prove,C,NA,default,24,Yes,NA,Female,English,NA,3
3530,default,block1,danny,ai,0.15000000000000002,24201,hear,8,hear,C,NA,default,24,Yes,NA,Female,English,NA,4
3530,default,block1,josh,ai,0.22999999999999998,11514,establish,9,establish,C,NA,default,24,Yes,NA,Female,English,NA,5
3530,default,block1,jackson,ai,0.14,9753,know,10,know,C,NA,default,24,Yes,NA,Female,English,NA,6
3530,default,block1,isabella,ai,0.12,10614,announce,11,announce,C,NA,default,24,Yes,NA,Female,English,NA,7
3530,default,block1,owen,ai,0.18000000000000005,9755,reveal,12,reveal,C,NA,default,24,Yes,NA,Female,English,NA,8
3530,default,block1,tony,ai,0.16000000000000003,6551,discover,13,discover,C,NA,default,24,Yes,NA,Female,English,NA,9
3530,default,block1,muffins,ai,0.16000000000000003,12400,MC,14,MC,MC,NA,default,24,Yes,NA,Female,English,NA,10
3530,default,block1,garage,ai,0.14,11920,MC,15,MC,MC,NA,default,24,Yes,NA,Female,English,NA,11
3530,default,block1,grace,ai,0.13,19495,think,16,think,C,NA,default,24,Yes,NA,Female,English,NA,12
3530,default,block1,zoe,ai,0.08999999999999997,13029,be_right,17,be_right,C,NA,default,24,Yes,NA,Female,English,NA,13
3530,default,block1,kids,ai,0.16000000000000003,5702,MC,18,MC,MC,NA,default,24,Yes,NA,Female,English,NA,14
3530,default,block1,jayden,ai,0.18000000000000005,44110,confirm,19,confirm,C,NA,default,24,Yes,NA,Female,English,NA,15
3530,default,block1,josie,ai,0.13,13158,be_annoyed,20,be_annoyed,C,NA,default,24,Yes,NA,Female,English,NA,16
3530,default,block1,ballet,ai,0.06999999999999995,6820,MC,21,MC,MC,NA,default,24,Yes,NA,Female,English,NA,17
3530,default,block1,jon,ai,0.07999999999999996,25035,pretend,22,pretend,C,NA,default,24,Yes,NA,Female,English,NA,18
3530,default,block1,charley,ai,0.09999999999999998,7701,see,23,see,C,NA,default,24,Yes,NA,Female,English,NA,19
3530,default,block1,julian,ai,0.25,9555,acknowledge,24,acknowledge,C,NA,default,24,Yes,NA,Female,English,NA,20
3530,default,block1,frank,ai,0.69,6129,demonstrate,25,demonstrate,C,NA,default,24,Yes,NA,Female,English,NA,21
3530,default,block1,pizza,ai,0.25,7276,MC,26,MC,MC,NA,default,24,Yes,NA,Female,English,NA,22
3530,default,block1,mia,ai,0.30000000000000004,38861,inform,27,inform,C,NA,default,24,Yes,NA,Female,English,NA,23
3530,default,block1,sophia,ai,0.18999999999999995,6918,admit,28,admit,C,NA,default,24,Yes,NA,Female,English,NA,24
3530,default,block1,mary,ai,0.26,5515,say,29,say,C,NA,default,24,Yes,NA,Female,English,NA,25
3530,default,block1,olivia,ai,0.16000000000000003,8864,suggest,30,suggest,C,NA,default,24,Yes,NA,Female,English,NA,26
3530,default,block2,emma,projective,0.88,23338,confess,32,confess,C,NA,default,24,Yes,NA,Female,English,NA,27
3530,default,block2,garage,projective,0.98,10996,MC,33,MC,MC,NA,default,24,Yes,NA,Female,English,NA,28
3530,default,block2,charley,projective,0.77,9347,see,34,see,C,NA,default,24,Yes,NA,Female,English,NA,29
3530,default,block2,isabella,projective,0.66,17059,announce,35,announce,C,NA,default,24,Yes,NA,Female,English,NA,30
3530,default,block2,hat,projective,0.98,6054,MC,36,MC,MC,NA,default,24,Yes,NA,Female,English,NA,31
3530,default,block2,muffins,projective,0.98,5839,MC,37,MC,MC,NA,default,24,Yes,NA,Female,English,NA,32
3530,default,block2,josie,projective,0.99,10008,be_annoyed,38,be_annoyed,C,NA,default,24,Yes,NA,Female,English,NA,33
3530,default,block2,mary,projective,0.66,9396,say,39,say,C,NA,default,24,Yes,NA,Female,English,NA,34
3530,default,block2,frank,projective,0.77,8906,demonstrate,40,demonstrate,C,NA,default,24,Yes,NA,Female,English,NA,35
3530,default,block2,josh,projective,0.62,7838,establish,41,establish,C,NA,default,24,Yes,NA,Female,English,NA,36
3530,default,block2,zoe,projective,0.62,5599,be_right,42,be_right,C,NA,default,24,Yes,NA,Female,English,NA,37
3530,default,block2,sophia,projective,0.91,5718,admit,43,admit,C,NA,default,24,Yes,NA,Female,English,NA,38
3530,default,block2,jackson,projective,0.69,7420,know,44,know,C,NA,default,24,Yes,NA,Female,English,NA,39
3530,default,block2,pizza,projective,0.99,4756,MC,45,MC,MC,NA,default,24,Yes,NA,Female,English,NA,40
3530,default,block2,kids,projective,0.97,4677,MC,46,MC,MC,NA,default,24,Yes,NA,Female,English,NA,41
3530,default,block2,jayden,projective,0.76,8564,confirm,47,confirm,C,NA,default,24,Yes,NA,Female,English,NA,42
3530,default,block2,jon,projective,0.07,12011,pretend,48,pretend,C,NA,default,24,Yes,NA,Female,English,NA,43
3530,default,block2,owen,projective,0.5,6578,reveal,49,reveal,C,NA,default,24,Yes,NA,Female,English,NA,44
3530,default,block2,olivia,projective,0.39,6255,suggest,50,suggest,C,NA,default,24,Yes,NA,Female,English,NA,45
3530,default,block2,danny,projective,0.45,5124,hear,51,hear,C,NA,default,24,Yes,NA,Female,English,NA,46
3530,default,block2,grace,projective,0.22,3268,think,52,think,C,NA,default,24,Yes,NA,Female,English,NA,47
3530,default,block2,ballet,projective,0.99,2350,MC,53,MC,MC,NA,default,24,Yes,NA,Female,English,NA,48
3530,default,block2,emily,projective,0.27,6444,prove,54,prove,C,NA,default,24,Yes,NA,Female,English,NA,49
3530,default,block2,julian,projective,0.97,4410,acknowledge,55,acknowledge,C,NA,default,24,Yes,NA,Female,English,NA,50
3530,default,block2,mia,projective,0.88,4286,inform,56,inform,C,NA,default,24,Yes,NA,Female,English,NA,51
3530,default,block2,tony,projective,0.97,3533,discover,57,discover,C,NA,default,24,Yes,NA,Female,English,NA,52
3509,default,block1,pizza,projective,0.97,21773,MC,5,MC,MC,NA,default,31,Yes,NA,Male,english,NA,1
3509,default,block1,julian,projective,0.96,22467,reveal,6,reveal,C,NA,default,31,Yes,NA,Male,english,NA,2
3509,default,block1,jon,projective,0.98,42219,see,7,see,C,NA,default,31,Yes,NA,Male,english,NA,3
3509,default,block1,emma,projective,0.04,13742,be_annoyed,8,be_annoyed,C,NA,default,31,Yes,NA,Male,english,NA,4
3509,default,block1,grace,projective,0.03,11400,confirm,9,confirm,C,NA,default,31,Yes,NA,Male,english,NA,5
3509,default,block1,zoe,projective,0.99,10617,discover,10,discover,C,NA,default,31,Yes,NA,Male,english,NA,6
3509,default,block1,olivia,projective,0.94,11026,know,11,know,C,NA,default,31,Yes,NA,Male,english,NA,7
3509,default,block1,danny,projective,0.15,14246,acknowledge,12,acknowledge,C,NA,default,31,Yes,NA,Male,english,NA,8
3509,default,block1,emily,projective,0.05,8728,be_right,13,be_right,C,NA,default,31,Yes,NA,Male,english,NA,9
3509,default,block1,muffins,projective,0.99,13640,MC,14,MC,MC,NA,default,31,Yes,NA,Male,english,NA,10
3509,default,block1,jackson,projective,0.08,8101,prove,15,prove,C,NA,default,31,Yes,NA,Male,english,NA,11
3509,default,block1,charley,projective,0.25,12361,inform,16,inform,C,NA,default,31,Yes,NA,Male,english,NA,12
3509,default,block1,jayden,projective,0.17,9075,think,17,think,C,NA,default,31,Yes,NA,Male,english,NA,13
3509,default,block1,owen,projective,0.19,11550,pretend,18,pretend,C,NA,default,31,Yes,NA,Male,english,NA,14
3509,default,block1,ballet,projective,0.98,7000,MC,19,MC,MC,NA,default,31,Yes,NA,Male,english,NA,15
3509,default,block1,josh,projective,0.61,13252,confess,20,confess,C,NA,default,31,Yes,NA,Male,english,NA,16
3509,default,block1,mary,projective,0.07,8796,admit,21,admit,C,NA,default,31,Yes,NA,Male,english,NA,17
3509,default,block1,josie,projective,0.17,8774,suggest,22,suggest,C,NA,default,31,Yes,NA,Male,english,NA,18
3509,default,block1,sophia,projective,0.31,10986,hear,23,hear,C,NA,default,31,Yes,NA,Male,english,NA,19
3509,default,block1,frank,projective,0.29,11061,say,24,say,C,NA,default,31,Yes,NA,Male,english,NA,20
3509,default,block1,kids,projective,0.97,6653,MC,25,MC,MC,NA,default,31,Yes,NA,Male,english,NA,21
3509,default,block1,mia,projective,0.27,5400,announce,26,announce,C,NA,default,31,Yes,NA,Male,english,NA,22
3509,default,block1,tony,projective,0.3,6542,establish,27,establish,C,NA,default,31,Yes,NA,Male,english,NA,23
3509,default,block1,hat,projective,0.98,7441,MC,28,MC,MC,NA,default,31,Yes,NA,Male,english,NA,24
3509,default,block1,garage,projective,0.99,8819,MC,29,MC,MC,NA,default,31,Yes,NA,Male,english,NA,25
3509,default,block1,isabella,projective,0.33,7237,demonstrate,30,demonstrate,C,NA,default,31,Yes,NA,Male,english,NA,26
3509,default,block2,isabella,ai,0.30000000000000004,13978,demonstrate,32,demonstrate,C,NA,default,31,Yes,NA,Male,english,NA,27
3509,default,block2,jackson,ai,0.19999999999999996,12753,prove,33,prove,C,NA,default,31,Yes,NA,Male,english,NA,28
3509,default,block2,julian,ai,0.36,14160,reveal,34,reveal,C,NA,default,31,Yes,NA,Male,english,NA,29
3509,default,block2,josh,ai,0.35,10461,confess,35,confess,C,NA,default,31,Yes,NA,Male,english,NA,30
3509,default,block2,mia,ai,0.37,13605,announce,36,announce,C,NA,default,31,Yes,NA,Male,english,NA,31
3509,default,block2,jon,ai,0.12,17517,see,37,see,C,NA,default,31,Yes,NA,Male,english,NA,32
3509,default,block2,pizza,ai,0.8200000000000001,15072,MC,38,MC,MC,NA,default,31,Yes,NA,Male,english,NA,33
3509,default,block2,jayden,ai,0.38,11112,think,39,think,C,NA,default,31,Yes,NA,Male,english,NA,34
3509,default,block2,mary,ai,0.25,8418,admit,40,admit,C,NA,default,31,Yes,NA,Male,english,NA,35
3509,default,block2,hat,ai,0.91,8891,MC,41,MC,MC,NA,default,31,Yes,NA,Male,english,NA,36
3509,default,block2,tony,ai,0.08999999999999997,7991,establish,42,establish,C,NA,default,31,Yes,NA,Male,english,NA,37
3509,default,block2,emma,ai,0.33999999999999997,11655,be_annoyed,43,be_annoyed,C,NA,default,31,Yes,NA,Male,english,NA,38
3509,default,block2,kids,ai,0.86,10577,MC,44,MC,MC,NA,default,31,Yes,NA,Male,english,NA,39
3509,default,block2,zoe,ai,0.29000000000000004,7134,discover,45,discover,C,NA,default,31,Yes,NA,Male,english,NA,40
3509,default,block2,frank,ai,0.33999999999999997,11422,say,46,say,C,NA,default,31,Yes,NA,Male,english,NA,41
3509,default,block2,charley,ai,0.31999999999999995,8174,inform,47,inform,C,NA,default,31,Yes,NA,Male,english,NA,42
3509,default,block2,muffins,ai,0.85,9019,MC,48,MC,MC,NA,default,31,Yes,NA,Male,english,NA,43
3509,default,block2,owen,ai,0.30000000000000004,7697,pretend,49,pretend,C,NA,default,31,Yes,NA,Male,english,NA,44
3509,default,block2,josie,ai,0.29000000000000004,8458,suggest,50,suggest,C,NA,default,31,Yes,NA,Male,english,NA,45
3509,default,block2,grace,ai,0.27,6630,confirm,51,confirm,C,NA,default,31,Yes,NA,Male,english,NA,46
3509,default,block2,ballet,ai,0.9,6816,MC,52,MC,MC,NA,default,31,Yes,NA,Male,english,NA,47
3509,default,block2,emily,ai,0.27,6668,be_right,53,be_right,C,NA,default,31,Yes,NA,Male,english,NA,48
3509,default,block2,garage,ai,0.92,6272,MC,54,MC,MC,NA,default,31,Yes,NA,Male,english,NA,49
3509,default,block2,sophia,ai,0.20999999999999996,5888,hear,55,hear,C,NA,default,31,Yes,NA,Male,english,NA,50
3509,default,block2,olivia,ai,0.17000000000000004,6441,know,56,know,C,NA,default,31,Yes,NA,Male,english,NA,51
3509,default,block2,danny,ai,0.28,7720,acknowledge,57,acknowledge,C,NA,default,31,Yes,NA,Male,english,NA,52
3553,default,block1,muffins,projective,0.97,11389,MC,5,MC,MC,NA,default,21,Yes,NA,Female,English,NA,1
3553,default,block1,josh,projective,0.22,37295,think,6,think,C,NA,default,21,Yes,NA,Female,English,NA,2
3553,default,block1,tony,projective,0.12,9765,prove,7,prove,C,NA,default,21,Yes,NA,Female,English,NA,3
3553,default,block1,pizza,projective,0.98,10849,MC,8,MC,MC,NA,default,21,Yes,NA,Female,English,NA,4
3553,default,block1,jackson,projective,0.01,16081,pretend,9,pretend,C,NA,default,21,Yes,NA,Female,English,NA,5
3553,default,block1,olivia,projective,0.95,8210,be_annoyed,10,be_annoyed,C,NA,default,21,Yes,NA,Female,English,NA,6
3553,default,block1,mia,projective,0.95,7599,know,11,know,C,NA,default,21,Yes,NA,Female,English,NA,7
3553,default,block1,zoe,projective,0.96,5619,hear,12,hear,C,NA,default,21,Yes,NA,Female,English,NA,8
3553,default,block1,julian,projective,0.17,5182,say,13,say,C,NA,default,21,Yes,NA,Female,English,NA,9
3553,default,block1,jon,projective,0.2,16420,inform,14,inform,C,NA,default,21,Yes,NA,Female,English,NA,10
3553,default,block1,owen,projective,0.98,26178,reveal,15,reveal,C,NA,default,21,Yes,NA,Female,English,NA,11
3553,default,block1,danny,projective,0.97,9284,announce,16,announce,C,NA,default,21,Yes,NA,Female,English,NA,12
3553,default,block1,hat,projective,0.96,7619,MC,17,MC,MC,NA,default,21,Yes,NA,Female,English,NA,13
3553,default,block1,emily,projective,0.29,4500,be_right,18,be_right,C,NA,default,21,Yes,NA,Female,English,NA,14
3553,default,block1,isabella,projective,0.88,6839,establish,19,establish,C,NA,default,21,Yes,NA,Female,English,NA,15
3553,default,block1,emma,projective,0.99,4710,discover,20,discover,C,NA,default,21,Yes,NA,Female,English,NA,16
3553,default,block1,kids,projective,0.97,5656,MC,21,MC,MC,NA,default,21,Yes,NA,Female,English,NA,17
3553,default,block1,garage,projective,0.99,3467,MC,22,MC,MC,NA,default,21,Yes,NA,Female,English,NA,18
3553,default,block1,grace,projective,0.97,21743,see,23,see,C,NA,default,21,Yes,NA,Female,English,NA,19
3553,default,block1,ballet,projective,0.98,4104,MC,24,MC,MC,NA,default,21,Yes,NA,Female,English,NA,20
3553,default,block1,frank,projective,0.68,4870,confirm,25,confirm,C,NA,default,21,Yes,NA,Female,English,NA,21
3553,default,block1,josie,projective,0.97,20041,acknowledge,26,acknowledge,C,NA,default,21,Yes,NA,Female,English,NA,22
3553,default,block1,jayden,projective,0.95,5913,admit,27,admit,C,NA,default,21,Yes,NA,Female,English,NA,23
3553,default,block1,charley,projective,0.09,5263,suggest,28,suggest,C,NA,default,21,Yes,NA,Female,English,NA,24
3553,default,block1,mary,projective,0.98,5335,confess,29,confess,C,NA,default,21,Yes,NA,Female,English,NA,25
3553,default,block1,sophia,projective,0.75,4137,demonstrate,30,demonstrate,C,NA,default,21,Yes,NA,Female,English,NA,26
3553,default,block2,hat,ai,0.72,7420,MC,32,MC,MC,NA,default,21,Yes,NA,Female,English,NA,27
3553,default,block2,jon,ai,0.4,16483,inform,33,inform,C,NA,default,21,Yes,NA,Female,English,NA,28
3553,default,block2,tony,ai,0.4,25105,prove,34,prove,C,NA,default,21,Yes,NA,Female,English,NA,29
3553,default,block2,josie,ai,0.41000000000000003,6608,acknowledge,35,acknowledge,C,NA,default,21,Yes,NA,Female,English,NA,30
3553,default,block2,frank,ai,0.42000000000000004,5738,confirm,36,confirm,C,NA,default,21,Yes,NA,Female,English,NA,31
3553,default,block2,emma,ai,0.33999999999999997,9454,discover,37,discover,C,NA,default,21,Yes,NA,Female,English,NA,32
3553,default,block2,charley,ai,0.37,4126,suggest,38,suggest,C,NA,default,21,Yes,NA,Female,English,NA,33
3553,default,block2,kids,ai,0.73,6465,MC,39,MC,MC,NA,default,21,Yes,NA,Female,English,NA,34
3553,default,block2,isabella,ai,0.65,6659,establish,40,establish,C,NA,default,21,Yes,NA,Female,English,NA,35
3553,default,block2,jayden,ai,0.38,3369,admit,41,admit,C,NA,default,21,Yes,NA,Female,English,NA,36
3553,default,block2,owen,ai,0.38,7748,reveal,42,reveal,C,NA,default,21,Yes,NA,Female,English,NA,37
3553,default,block2,grace,ai,0.37,6543,see,43,see,C,NA,default,21,Yes,NA,Female,English,NA,38
3553,default,block2,danny,ai,0.31999999999999995,3395,announce,44,announce,C,NA,default,21,Yes,NA,Female,English,NA,39
3553,default,block2,sophia,ai,0.7,5029,demonstrate,45,demonstrate,C,NA,default,21,Yes,NA,Female,English,NA,40
3553,default,block2,ballet,ai,0.73,8150,MC,46,MC,MC,NA,default,21,Yes,NA,Female,English,NA,41
3553,default,block2,olivia,ai,0.33999999999999997,5762,be_annoyed,47,be_annoyed,C,NA,default,21,Yes,NA,Female,English,NA,42
3553,default,block2,josh,ai,0.31000000000000005,6421,think,48,think,C,NA,default,21,Yes,NA,Female,English,NA,43
3553,default,block2,emily,ai,0.7,45512,be_right,49,be_right,C,NA,default,21,Yes,NA,Female,English,NA,44
3553,default,block2,pizza,ai,0.73,10096,MC,50,MC,MC,NA,default,21,Yes,NA,Female,English,NA,45
3553,default,block2,mary,ai,0.4,4692,confess,51,confess,C,NA,default,21,Yes,NA,Female,English,NA,46
3553,default,block2,mia,ai,0.37,12289,know,52,know,C,NA,default,21,Yes,NA,Female,English,NA,47
3553,default,block2,muffins,ai,0.98,7338,MC,53,MC,MC,NA,default,21,Yes,NA,Female,English,NA,48
3553,default,block2,zoe,ai,0.32999999999999996,7755,hear,54,hear,C,NA,default,21,Yes,NA,Female,English,NA,49
3553,default,block2,julian,ai,0.33999999999999997,3136,say,55,say,C,NA,default,21,Yes,NA,Female,English,NA,50
3553,default,block2,garage,ai,0.83,16566,MC,56,MC,MC,NA,default,21,Yes,NA,Female,English,NA,51
3553,default,block2,jackson,ai,0.37,4484,pretend,57,pretend,C,NA,default,21,Yes,NA,Female,English,NA,52
3376,default,block1,jackson,projective,0.2,31734,be_annoyed,5,be_annoyed,C,NA,default,24,Yes,NA,Female,English and Spanish,NA,1
3376,default,block1,hat,projective,1,9837,MC,6,MC,MC,NA,default,24,Yes,NA,Female,English and Spanish,NA,2
3376,default,block1,emily,projective,0.3,19819,confirm,7,confirm,C,NA,default,24,Yes,NA,Female,English and Spanish,NA,3
3376,default,block1,sophia,projective,0.1,11022,think,8,think,C,NA,default,24,Yes,NA,Female,English and Spanish,NA,4
3376,default,block1,kids,projective,1,14061,MC,9,MC,MC,NA,default,24,Yes,NA,Female,English and Spanish,NA,5
3376,default,block1,jon,projective,0.11,16391,admit,10,admit,C,NA,default,24,Yes,NA,Female,English and Spanish,NA,6
3376,default,block1,emma,projective,0.08,20890,prove,11,prove,C,NA,default,24,Yes,NA,Female,English and Spanish,NA,7
3376,default,block1,josh,projective,0.1,13309,reveal,12,reveal,C,NA,default,24,Yes,NA,Female,English and Spanish,NA,8
3376,default,block1,garage,projective,1,7901,MC,13,MC,MC,NA,default,24,Yes,NA,Female,English and Spanish,NA,9
3376,default,block1,ballet,projective,1,5031,MC,14,MC,MC,NA,default,24,Yes,NA,Female,English and Spanish,NA,10
3376,default,block1,tony,projective,0.73,18373,discover,15,discover,C,NA,default,24,Yes,NA,Female,English and Spanish,NA,11
3376,default,block1,julian,projective,0.76,19767,confess,16,confess,C,NA,default,24,Yes,NA,Female,English and Spanish,NA,12
3376,default,block1,isabella,projective,0.76,12228,acknowledge,17,acknowledge,C,NA,default,24,Yes,NA,Female,English and Spanish,NA,13
3376,default,block1,charley,projective,0.77,8498,see,18,see,C,NA,default,24,Yes,NA,Female,English and Spanish,NA,14
3376,default,block1,jayden,projective,0.8,5920,announce,19,announce,C,NA,default,24,Yes,NA,Female,English and Spanish,NA,15
3376,default,block1,mary,projective,0.89,5719,say,20,say,C,NA,default,24,Yes,NA,Female,English and Spanish,NA,16
3376,default,block1,frank,projective,0.86,12305,inform,21,inform,C,NA,default,24,Yes,NA,Female,English and Spanish,NA,17
3376,default,block1,olivia,projective,0.84,8514,pretend,22,pretend,C,NA,default,24,Yes,NA,Female,English and Spanish,NA,18
3376,default,block1,muffins,projective,1,8940,MC,23,MC,MC,NA,default,24,Yes,NA,Female,English and Spanish,NA,19
3376,default,block1,pizza,projective,1,7030,MC,24,MC,MC,NA,default,24,Yes,NA,Female,English and Spanish,NA,20
3376,default,block1,grace,projective,0.9,17387,know,25,know,C,NA,default,24,Yes,NA,Female,English and Spanish,NA,21
