workerid,proliferate.condition,block,content,question_type,response,rt,short_trigger,slide_number_in_experiment,trigger,trigger_class,catch_trials,subject_information.age,subject_information.american,subject_information.comments,subject_information.gender,subject_information.language,system.Browser,system.OS,system.screenH,system.screenW,time_in_minutes,error
3531,default,block1,owen,ai,0.61,11827,discover,5,discover,C,[],18,Yes,,Female,English,Chrome,Windows,864,1536,8.737416666666666,
3531,default,block1,jon,ai,0.61,10640,confirm,6,confirm,C,[],18,Yes,,Female,English,Chrome,Windows,864,1536,8.737416666666666,
3531,default,block1,mary,ai,0.61,5899,suggest,7,suggest,C,[],18,Yes,,Female,English,Chrome,Windows,864,1536,8.737416666666666,
3531,default,block1,josh,ai,0.7,9262,see,8,see,C,[],18,Yes,,Female,English,Chrome,Windows,864,1536,8.737416666666666,
3531,default,block1,danny,ai,0.8,8658,pretend,9,pretend,C,[],18,Yes,,Female,English,Chrome,Windows,864,1536,8.737416666666666,
3531,default,block1,tony,ai,0.62,8757,say,10,say,C,[],18,Yes,,Female,English,Chrome,Windows,864,1536,8.737416666666666,
3531,default,block1,josie,ai,0.31,9195,hear,11,hear,C,[],18,Yes,,Female,English,Chrome,Windows,864,1536,8.737416666666666,
3531,default,block1,muffins,ai,0.21,8674,MC,12,MC,MC,[],18,Yes,,Female,English,Chrome,Windows,864,1536,8.737416666666666,
3531,default,block1,hat,ai,0.61,56426,MC,13,MC,MC,[],18,Yes,,Female,English,Chrome,Windows,864,1536,8.737416666666666,
3531,default,block1,sophia,ai,0.55,6233,think,14,think,C,[],18,Yes,,Female,English,Chrome,Windows,864,1536,8.737416666666666,
3531,default,block1,grace,ai,0.32,6736,prove,15,prove,C,[],18,Yes,,Female,English,Chrome,Windows,864,1536,8.737416666666666,
3531,default,block1,olivia,ai,0.52,8912,be_right,16,be_right,C,[],18,Yes,,Female,English,Chrome,Windows,864,1536,8.737416666666666,
3531,default,block1,jayden,ai,0.6,9338,confess,17,confess,C,[],18,Yes,,Female,English,Chrome,Windows,864,1536,8.737416666666666,
3531,default,block1,emily,ai,0.34,7005,admit,18,admit,C,[],18,Yes,,Female,English,Chrome,Windows,864,1536,8.737416666666666,
3531,default,block1,zoe,ai,0.64,8214,establish,19,establish,C,[],18,Yes,,Female,English,Chrome,Windows,864,1536,8.737416666666666,
3531,default,block1,emma,ai,0.91,11165,inform,20,inform,C,[],18,Yes,,Female,English,Chrome,Windows,864,1536,8.737416666666666,
3531,default,block1,isabella,ai,0.4,6483,demonstrate,21,demonstrate,C,[],18,Yes,,Female,English,Chrome,Windows,864,1536,8.737416666666666,
3531,default,block1,charley,ai,0.38,6421,announce,22,announce,C,[],18,Yes,,Female,English,Chrome,Windows,864,1536,8.737416666666666,
3531,default,block1,frank,ai,0.79,12234,be_annoyed,23,be_annoyed,C,[],18,Yes,,Female,English,Chrome,Windows,864,1536,8.737416666666666,
3531,default,block1,mia,ai,0.78,7954,acknowledge,24,acknowledge,C,[],18,Yes,,Female,English,Chrome,Windows,864,1536,8.737416666666666,
3531,default,block1,ballet,ai,0.85,6376,MC,25,MC,MC,[],18,Yes,,Female,English,Chrome,Windows,864,1536,8.737416666666666,
3531,default,block1,jackson,ai,0.49,13110,know,26,know,C,[],18,Yes,,Female,English,Chrome,Windows,864,1536,8.737416666666666,
3531,default,block1,julian,ai,0.77,8869,reveal,27,reveal,C,[],18,Yes,,Female,English,Chrome,Windows,864,1536,8.737416666666666,
3531,default,block1,pizza,ai,0.83,5514,MC,28,MC,MC,[],18,Yes,,Female,English,Chrome,Windows,864,1536,8.737416666666666,
3531,default,block1,garage,ai,0.8,9858,MC,29,MC,MC,[],18,Yes,,Female,English,Chrome,Windows,864,1536,8.737416666666666,
3531,default,block1,kids,ai,0.9,4839,MC,30,MC,MC,[],18,Yes,,Female,English,Chrome,Windows,864,1536,8.737416666666666,
3531,default,block2,tony,projective,0.18,10778,say,32,say,C,[],18,Yes,,Female,English,Chrome,Windows,864,1536,8.737416666666666,
3531,default,block2,kids,projective,0.96,5961,MC,33,MC,MC,[],18,Yes,,Female,English,Chrome,Windows,864,1536,8.737416666666666,
3531,default,block2,emily,projective,0.28,8642,admit,34,admit,C,[],18,Yes,,Female,English,Chrome,Windows,864,1536,8.737416666666666,
3531,default,block2,mary,projective,0.15,11885,suggest,35,suggest,C,[],18,Yes,,Female,English,Chrome,Windows,864,1536,8.737416666666666,
3531,default,block2,mia,projective,0.62,5510,acknowledge,36,acknowledge,C,[],18,Yes,,Female,English,Chrome,Windows,864,1536,8.737416666666666,
3531,default,block2,hat,projective,0.97,6667,MC,37,MC,MC,[],18,Yes,,Female,English,Chrome,Windows,864,1536,8.737416666666666,
3531,default,block2,josh,projective,0.95,6023,see,38,see,C,[],18,Yes,,Female,English,Chrome,Windows,864,1536,8.737416666666666,
3531,default,block2,jon,projective,0.3,4781,confirm,39,confirm,C,[],18,Yes,,Female,English,Chrome,Windows,864,1536,8.737416666666666,
3531,default,block2,jayden,projective,0.16,4300,confess,40,confess,C,[],18,Yes,,Female,English,Chrome,Windows,864,1536,8.737416666666666,
3531,default,block2,josie,projective,0.9,6422,hear,41,hear,C,[],18,Yes,,Female,English,Chrome,Windows,864,1536,8.737416666666666,
3531,default,block2,owen,projective,0.95,4733,discover,42,discover,C,[],18,Yes,,Female,English,Chrome,Windows,864,1536,8.737416666666666,
3531,default,block2,julian,projective,0.92,8499,reveal,43,reveal,C,[],18,Yes,,Female,English,Chrome,Windows,864,1536,8.737416666666666,
3531,default,block2,emma,projective,0.86,6809,inform,44,inform,C,[],18,Yes,,Female,English,Chrome,Windows,864,1536,8.737416666666666,
3531,default,block2,olivia,projective,0.13,5234,be_right,45,be_right,C,[],18,Yes,,Female,English,Chrome,Windows,864,1536,8.737416666666666,
3531,default,block2,jackson,projective,0.83,5827,know,46,know,C,[],18,Yes,,Female,English,Chrome,Windows,864,1536,8.737416666666666,
3531,default,block2,frank,projective,0.92,5084,be_annoyed,47,be_annoyed,C,[],18,Yes,,Female,English,Chrome,Windows,864,1536,8.737416666666666,
3531,default,block2,sophia,projective,0.84,8459,think,48,think,C,[],18,Yes,,Female,English,Chrome,Windows,864,1536,8.737416666666666,
3531,default,block2,isabella,projective,0.24,5843,demonstrate,49,demonstrate,C,[],18,Yes,,Female,English,Chrome,Windows,864,1536,8.737416666666666,
3531,default,block2,zoe,projective,0.48,6523,establish,50,establish,C,[],18,Yes,,Female,English,Chrome,Windows,864,1536,8.737416666666666,
3531,default,block2,grace,projective,0.28,5620,prove,51,prove,C,[],18,Yes,,Female,English,Chrome,Windows,864,1536,8.737416666666666,
3531,default,block2,danny,projective,0.88,6369,pretend,52,pretend,C,[],18,Yes,,Female,English,Chrome,Windows,864,1536,8.737416666666666,
3531,default,block2,ballet,projective,0.97,5420,MC,53,MC,MC,[],18,Yes,,Female,English,Chrome,Windows,864,1536,8.737416666666666,
3531,default,block2,muffins,projective,0.94,4202,MC,54,MC,MC,[],18,Yes,,Female,English,Chrome,Windows,864,1536,8.737416666666666,
3531,default,block2,charley,projective,0.68,9197,announce,55,announce,C,[],18,Yes,,Female,English,Chrome,Windows,864,1536,8.737416666666666,
3531,default,block2,garage,projective,0.98,4480,MC,56,MC,MC,[],18,Yes,,Female,English,Chrome,Windows,864,1536,8.737416666666666,
3531,default,block2,pizza,projective,0.93,3314,MC,57,MC,MC,[],18,Yes,,Female,English,Chrome,Windows,864,1536,8.737416666666666,
3454,default,block1,hat,projective,1,23508,MC,5,MC,MC,[],34,Yes,,Male,English,Chrome,Windows,768,1366,12.835666666666668,
3454,default,block1,jackson,projective,0.5,18682,be_annoyed,6,be_annoyed,C,[],34,Yes,,Male,English,Chrome,Windows,768,1366,12.835666666666668,
3454,default,block1,muffins,projective,0.99,7331,MC,7,MC,MC,[],34,Yes,,Male,English,Chrome,Windows,768,1366,12.835666666666668,
3454,default,block1,grace,projective,0.45,9844,discover,8,discover,C,[],34,Yes,,Male,English,Chrome,Windows,768,1366,12.835666666666668,
3454,default,block1,sophia,projective,0.44,6781,announce,9,announce,C,[],34,Yes,,Male,English,Chrome,Windows,768,1366,12.835666666666668,
3454,default,block1,mary,projective,0.48,7527,hear,10,hear,C,[],34,Yes,,Male,English,Chrome,Windows,768,1366,12.835666666666668,
3454,default,block1,isabella,projective,0.47,22933,demonstrate,11,demonstrate,C,[],34,Yes,,Male,English,Chrome,Windows,768,1366,12.835666666666668,
3454,default,block1,ballet,projective,0.98,9677,MC,12,MC,MC,[],34,Yes,,Male,English,Chrome,Windows,768,1366,12.835666666666668,
3454,default,block1,josh,projective,0.44,19812,pretend,13,pretend,C,[],34,Yes,,Male,English,Chrome,Windows,768,1366,12.835666666666668,
3454,default,block1,kids,projective,0.98,10142,MC,14,MC,MC,[],34,Yes,,Male,English,Chrome,Windows,768,1366,12.835666666666668,
3454,default,block1,josie,projective,0.27,17601,inform,15,inform,C,[],34,Yes,,Male,English,Chrome,Windows,768,1366,12.835666666666668,
3454,default,block1,garage,projective,1,10688,MC,16,MC,MC,[],34,Yes,,Male,English,Chrome,Windows,768,1366,12.835666666666668,
3454,default,block1,jon,projective,0.35,16356,confirm,17,confirm,C,[],34,Yes,,Male,English,Chrome,Windows,768,1366,12.835666666666668,
3454,default,block1,zoe,projective,0.31,23464,acknowledge,18,acknowledge,C,[],34,Yes,,Male,English,Chrome,Windows,768,1366,12.835666666666668,
3454,default,block1,julian,projective,0.48,6759,establish,19,establish,C,[],34,Yes,,Male,English,Chrome,Windows,768,1366,12.835666666666668,
3454,default,block1,owen,projective,0.5,6191,admit,20,admit,C,[],34,Yes,,Male,English,Chrome,Windows,768,1366,12.835666666666668,
3454,default,block1,jayden,projective,0.31,4812,know,21,know,C,[],34,Yes,,Male,English,Chrome,Windows,768,1366,12.835666666666668,
3454,default,block1,charley,projective,0.47,5628,say,22,say,C,[],34,Yes,,Male,English,Chrome,Windows,768,1366,12.835666666666668,
3454,default,block1,emily,projective,0.41,42787,prove,23,prove,C,[],34,Yes,,Male,English,Chrome,Windows,768,1366,12.835666666666668,
3454,default,block1,pizza,projective,0.97,12583,MC,24,MC,MC,[],34,Yes,,Male,English,Chrome,Windows,768,1366,12.835666666666668,
3454,default,block1,frank,projective,0.4,7050,see,25,see,C,[],34,Yes,,Male,English,Chrome,Windows,768,1366,12.835666666666668,
3454,default,block1,olivia,projective,0.32,6699,think,26,think,C,[],34,Yes,,Male,English,Chrome,Windows,768,1366,12.835666666666668,
3454,default,block1,mia,projective,0.43,5234,suggest,27,suggest,C,[],34,Yes,,Male,English,Chrome,Windows,768,1366,12.835666666666668,
3454,default,block1,emma,projective,0.41,5993,be_right,28,be_right,C,[],34,Yes,,Male,English,Chrome,Windows,768,1366,12.835666666666668,
3454,default,block1,tony,projective,0.38,4735,confess,29,confess,C,[],34,Yes,,Male,English,Chrome,Windows,768,1366,12.835666666666668,
3454,default,block1,danny,projective,0.6,18129,reveal,30,reveal,C,[],34,Yes,,Male,English,Chrome,Windows,768,1366,12.835666666666668,
3454,default,block2,grace,ai,0.57,16619,discover,32,discover,C,[],34,Yes,,Male,English,Chrome,Windows,768,1366,12.835666666666668,
3454,default,block2,jackson,ai,0.54,16082,be_annoyed,33,be_annoyed,C,[],34,Yes,,Male,English,Chrome,Windows,768,1366,12.835666666666668,
3454,default,block2,jayden,ai,0.31,27382,know,34,know,C,[],34,Yes,,Male,English,Chrome,Windows,768,1366,12.835666666666668,
3454,default,block2,julian,ai,0.44,8614,establish,35,establish,C,[],34,Yes,,Male,English,Chrome,Windows,768,1366,12.835666666666668,
3454,default,block2,isabella,ai,0.33,17464,demonstrate,36,demonstrate,C,[],34,Yes,,Male,English,Chrome,Windows,768,1366,12.835666666666668,
3454,default,block2,owen,ai,0.39,14897,admit,37,admit,C,[],34,Yes,,Male,English,Chrome,Windows,768,1366,12.835666666666668,
3454,default,block2,tony,ai,0.37,8767,confess,38,confess,C,[],34,Yes,,Male,English,Chrome,Windows,768,1366,12.835666666666668,
3454,default,block2,kids,ai,0.03,13513,MC,39,MC,MC,[],34,Yes,,Male,English,Chrome,Windows,768,1366,12.835666666666668,
3454,default,block2,mary,ai,0.34,8362,hear,40,hear,C,[],34,Yes,,Male,English,Chrome,Windows,768,1366,12.835666666666668,
3454,default,block2,jon,ai,0.33,42427,confirm,41,confirm,C,[],34,Yes,,Male,English,Chrome,Windows,768,1366,12.835666666666668,
3454,default,block2,josie,ai,0.37,15454,inform,42,inform,C,[],34,Yes,,Male,English,Chrome,Windows,768,1366,12.835666666666668,
3454,default,block2,ballet,ai,0.02,10709,MC,43,MC,MC,[],34,Yes,,Male,English,Chrome,Windows,768,1366,12.835666666666668,
3454,default,block2,emma,ai,0.55,12258,be_right,44,be_right,C,[],34,Yes,,Male,English,Chrome,Windows,768,1366,12.835666666666668,
3454,default,block2,zoe,ai,0.62,27017,acknowledge,45,acknowledge,C,[],34,Yes,,Male,English,Chrome,Windows,768,1366,12.835666666666668,
3454,default,block2,josh,ai,0.58,6851,pretend,46,pretend,C,[],34,Yes,,Male,English,Chrome,Windows,768,1366,12.835666666666668,
3454,default,block2,olivia,ai,0.67,7828,think,47,think,C,[],34,Yes,,Male,English,Chrome,Windows,768,1366,12.835666666666668,
3454,default,block2,sophia,ai,0.6,8132,announce,48,announce,C,[],34,Yes,,Male,English,Chrome,Windows,768,1366,12.835666666666668,
3454,default,block2,mia,ai,0.56,9320,suggest,49,suggest,C,[],34,Yes,,Male,English,Chrome,Windows,768,1366,12.835666666666668,
3454,default,block2,hat,ai,0.03,8602,MC,50,MC,MC,[],34,Yes,,Male,English,Chrome,Windows,768,1366,12.835666666666668,
3454,default,block2,charley,ai,0.61,5674,say,51,say,C,[],34,Yes,,Male,English,Chrome,Windows,768,1366,12.835666666666668,
3454,default,block2,danny,ai,0.51,7777,reveal,52,reveal,C,[],34,Yes,,Male,English,Chrome,Windows,768,1366,12.835666666666668,
3454,default,block2,muffins,ai,0.01,7944,MC,53,MC,MC,[],34,Yes,,Male,English,Chrome,Windows,768,1366,12.835666666666668,
3454,default,block2,garage,ai,0.04,8562,MC,54,MC,MC,[],34,Yes,,Male,English,Chrome,Windows,768,1366,12.835666666666668,
3454,default,block2,frank,ai,0.64,6373,see,55,see,C,[],34,Yes,,Male,English,Chrome,Windows,768,1366,12.835666666666668,
3454,default,block2,emily,ai,0.65,5187,prove,56,prove,C,[],34,Yes,,Male,English,Chrome,Windows,768,1366,12.835666666666668,
3454,default,block2,pizza,ai,0.01,7635,MC,57,MC,MC,[],34,Yes,,Male,English,Chrome,Windows,768,1366,12.835666666666668,
3371,default,block1,mia,ai,0.85,23116,hear,5,hear,C,[],21,Yes,,Female,English,Chrome,Windows,768,1366,23.711683333333333,
3371,default,block1,emily,ai,0.33,40626,suggest,6,suggest,C,[],21,Yes,,Female,English,Chrome,Windows,768,1366,23.711683333333333,
3371,default,block1,kids,ai,0.92,15143,MC,7,MC,MC,[],21,Yes,,Female,English,Chrome,Windows,768,1366,23.711683333333333,
3371,default,block1,ballet,ai,0.99,16106,MC,8,MC,MC,[],21,Yes,,Female,English,Chrome,Windows,768,1366,23.711683333333333,
3371,default,block1,josh,ai,0.67,79132,discover,9,discover,C,[],21,Yes,,Female,English,Chrome,Windows,768,1366,23.711683333333333,
3371,default,block1,hat,ai,0.6,16901,MC,10,MC,MC,[],21,Yes,,Female,English,Chrome,Windows,768,1366,23.711683333333333,
3371,default,block1,danny,ai,0.79,57234,demonstrate,11,demonstrate,C,[],21,Yes,,Female,English,Chrome,Windows,768,1366,23.711683333333333,
3371,default,block1,jon,ai,0.69,291979,think,12,think,C,[],21,Yes,,Female,English,Chrome,Windows,768,1366,23.711683333333333,
3371,default,block1,emma,ai,0.39,11131,be_right,13,be_right,C,[],21,Yes,,Female,English,Chrome,Windows,768,1366,23.711683333333333,
3371,default,block1,jayden,ai,0.75,10083,confirm,14,confirm,C,[],21,Yes,,Female,English,Chrome,Windows,768,1366,23.711683333333333,
3371,default,block1,zoe,ai,0.55,26201,acknowledge,15,acknowledge,C,[],21,Yes,,Female,English,Chrome,Windows,768,1366,23.711683333333333,
3371,default,block1,olivia,ai,0.76,13602,admit,16,admit,C,[],21,Yes,,Female,English,Chrome,Windows,768,1366,23.711683333333333,
3371,default,block1,julian,ai,0.49,15371,pretend,17,pretend,C,[],21,Yes,,Female,English,Chrome,Windows,768,1366,23.711683333333333,
3371,default,block1,sophia,ai,0.82,20640,inform,18,inform,C,[],21,Yes,,Female,English,Chrome,Windows,768,1366,23.711683333333333,
3371,default,block1,jackson,ai,0.74,27726,announce,19,announce,C,[],21,Yes,,Female,English,Chrome,Windows,768,1366,23.711683333333333,
3371,default,block1,josie,ai,0.67,45166,prove,20,prove,C,[],21,Yes,,Female,English,Chrome,Windows,768,1366,23.711683333333333,
3371,default,block1,owen,ai,0.8,14373,reveal,21,reveal,C,[],21,Yes,,Female,English,Chrome,Windows,768,1366,23.711683333333333,
3371,default,block1,muffins,ai,0.71,12170,MC,22,MC,MC,[],21,Yes,,Female,English,Chrome,Windows,768,1366,23.711683333333333,
3371,default,block1,pizza,ai,0.76,25799,MC,23,MC,MC,[],21,Yes,,Female,English,Chrome,Windows,768,1366,23.711683333333333,
3371,default,block1,mary,ai,0.73,14877,know,24,know,C,[],21,Yes,,Female,English,Chrome,Windows,768,1366,23.711683333333333,
3371,default,block1,tony,ai,0.84,11209,see,25,see,C,[],21,Yes,,Female,English,Chrome,Windows,768,1366,23.711683333333333,
3371,default,block1,charley,ai,0.72,8862,confess,26,confess,C,[],21,Yes,,Female,English,Chrome,Windows,768,1366,23.711683333333333,
3371,default,block1,grace,ai,0.97,17514,be_annoyed,27,be_annoyed,C,[],21,Yes,,Female,English,Chrome,Windows,768,1366,23.711683333333333,
3371,default,block1,garage,ai,0.77,10034,MC,28,MC,MC,[],21,Yes,,Female,English,Chrome,Windows,768,1366,23.711683333333333,
3371,default,block1,isabella,ai,0.7,64096,say,29,say,C,[],21,Yes,,Female,English,Chrome,Windows,768,1366,23.711683333333333,
3371,default,block1,frank,ai,0.7,43586,establish,30,establish,C,[],21,Yes,,Female,English,Chrome,Windows,768,1366,23.711683333333333,
3371,default,block2,owen,projective,0.96,13197,reveal,32,reveal,C,[],21,Yes,,Female,English,Chrome,Windows,768,1366,23.711683333333333,
3371,default,block2,sophia,projective,0.99,19736,inform,33,inform,C,[],21,Yes,,Female,English,Chrome,Windows,768,1366,23.711683333333333,
3371,default,block2,olivia,projective,0.97,11123,admit,34,admit,C,[],21,Yes,,Female,English,Chrome,Windows,768,1366,23.711683333333333,
3371,default,block2,jayden,projective,0.01,8263,confirm,35,confirm,C,[],21,Yes,,Female,English,Chrome,Windows,768,1366,23.711683333333333,
3371,default,block2,julian,projective,0.95,6944,pretend,36,pretend,C,[],21,Yes,,Female,English,Chrome,Windows,768,1366,23.711683333333333,
3371,default,block2,danny,projective,0.95,8336,demonstrate,37,demonstrate,C,[],21,Yes,,Female,English,Chrome,Windows,768,1366,23.711683333333333,
3371,default,block2,isabella,projective,0.64,9816,say,38,say,C,[],21,Yes,,Female,English,Chrome,Windows,768,1366,23.711683333333333,
3371,default,block2,josie,projective,0.08,9657,prove,39,prove,C,[],21,Yes,,Female,English,Chrome,Windows,768,1366,23.711683333333333,
3371,default,block2,emma,projective,0.04,15584,be_right,40,be_right,C,[],21,Yes,,Female,English,Chrome,Windows,768,1366,23.711683333333333,
3371,default,block2,josh,projective,0.98,8323,discover,41,discover,C,[],21,Yes,,Female,English,Chrome,Windows,768,1366,23.711683333333333,
3371,default,block2,grace,projective,0.97,14960,be_annoyed,42,be_annoyed,C,[],21,Yes,,Female,English,Chrome,Windows,768,1366,23.711683333333333,
3371,default,block2,tony,projective,0.06,12531,see,43,see,C,[],21,Yes,,Female,English,Chrome,Windows,768,1366,23.711683333333333,
3371,default,block2,hat,projective,0.96,6784,MC,44,MC,MC,[],21,Yes,,Female,English,Chrome,Windows,768,1366,23.711683333333333,
3371,default,block2,kids,projective,0.97,8457,MC,45,MC,MC,[],21,Yes,,Female,English,Chrome,Windows,768,1366,23.711683333333333,
3371,default,block2,pizza,projective,0.97,13459,MC,46,MC,MC,[],21,Yes,,Female,English,Chrome,Windows,768,1366,23.711683333333333,
3371,default,block2,mary,projective,0.97,6660,know,47,know,C,[],21,Yes,,Female,English,Chrome,Windows,768,1366,23.711683333333333,
3371,default,block2,ballet,projective,0.98,5012,MC,48,MC,MC,[],21,Yes,,Female,English,Chrome,Windows,768,1366,23.711683333333333,
3371,default,block2,emily,projective,0.17,12422,suggest,49,suggest,C,[],21,Yes,,Female,English,Chrome,Windows,768,1366,23.711683333333333,
3371,default,block2,garage,projective,0.95,8616,MC,50,MC,MC,[],21,Yes,,Female,English,Chrome,Windows,768,1366,23.711683333333333,
3371,default,block2,jon,projective,0.92,13261,think,51,think,C,[],21,Yes,,Female,English,Chrome,Windows,768,1366,23.711683333333333,
3371,default,block2,jackson,projective,0.85,13129,announce,52,announce,C,[],21,Yes,,Female,English,Chrome,Windows,768,1366,23.711683333333333,
3371,default,block2,mia,projective,0.91,11683,hear,53,hear,C,[],21,Yes,,Female,English,Chrome,Windows,768,1366,23.711683333333333,
3371,default,block2,muffins,projective,1,9464,MC,54,MC,MC,[],21,Yes,,Female,English,Chrome,Windows,768,1366,23.711683333333333,
3371,default,block2,frank,projective,0.96,5585,establish,55,establish,C,[],21,Yes,,Female,English,Chrome,Windows,768,1366,23.711683333333333,
3371,default,block2,zoe,projective,0.96,7495,acknowledge,56,acknowledge,C,[],21,Yes,,Female,English,Chrome,Windows,768,1366,23.711683333333333,
3371,default,block2,charley,projective,0.95,6257,confess,57,confess,C,[],21,Yes,,Female,English,Chrome,Windows,768,1366,23.711683333333333,
3546,default,block1,grace,ai,0.37,32747,inform,5,inform,C,[],20,Yes,,Female,English,Chrome,Mac,900,1440,9.303833333333332,
3546,default,block1,charley,ai,0.23,74874,establish,6,establish,C,[],20,Yes,,Female,English,Chrome,Mac,900,1440,9.303833333333332,
3546,default,block1,muffins,ai,0.11,9122,MC,7,MC,MC,[],20,Yes,,Female,English,Chrome,Mac,900,1440,9.303833333333332,
3546,default,block1,emily,ai,0,10375,see,8,see,C,[],20,Yes,,Female,English,Chrome,Mac,900,1440,9.303833333333332,
3546,default,block1,mary,ai,0.85,7737,announce,9,announce,C,[],20,Yes,,Female,English,Chrome,Mac,900,1440,9.303833333333332,
3546,default,block1,emma,ai,0.15,6401,know,10,know,C,[],20,Yes,,Female,English,Chrome,Mac,900,1440,9.303833333333332,
3546,default,block1,jayden,ai,0.85,12230,reveal,11,reveal,C,[],20,Yes,,Female,English,Chrome,Mac,900,1440,9.303833333333332,
3546,default,block1,tony,ai,0.82,8791,be_annoyed,12,be_annoyed,C,[],20,Yes,,Female,English,Chrome,Mac,900,1440,9.303833333333332,
3546,default,block1,owen,ai,0.8,6589,think,13,think,C,[],20,Yes,,Female,English,Chrome,Mac,900,1440,9.303833333333332,
3546,default,block1,ballet,ai,0.36,13151,MC,14,MC,MC,[],20,Yes,,Female,English,Chrome,Mac,900,1440,9.303833333333332,
3546,default,block1,pizza,ai,0.32,9582,MC,15,MC,MC,[],20,Yes,,Female,English,Chrome,Mac,900,1440,9.303833333333332,
3546,default,block1,josh,ai,0.7,40321,prove,16,prove,C,[],20,Yes,,Female,English,Chrome,Mac,900,1440,9.303833333333332,
3546,default,block1,olivia,ai,0.84,6549,confirm,17,confirm,C,[],20,Yes,,Female,English,Chrome,Mac,900,1440,9.303833333333332,
3546,default,block1,julian,ai,0.21,5501,confess,18,confess,C,[],20,Yes,,Female,English,Chrome,Mac,900,1440,9.303833333333332,
3546,default,block1,garage,ai,0.21,7198,MC,19,MC,MC,[],20,Yes,,Female,English,Chrome,Mac,900,1440,9.303833333333332,
3546,default,block1,jackson,ai,0.21,6034,say,20,say,C,[],20,Yes,,Female,English,Chrome,Mac,900,1440,9.303833333333332,
3546,default,block1,kids,ai,0.36,7935,MC,21,MC,MC,[],20,Yes,,Female,English,Chrome,Mac,900,1440,9.303833333333332,
3546,default,block1,josie,ai,0.81,6809,demonstrate,22,demonstrate,C,[],20,Yes,,Female,English,Chrome,Mac,900,1440,9.303833333333332,
3546,default,block1,isabella,ai,0.26,5987,suggest,23,suggest,C,[],20,Yes,,Female,English,Chrome,Mac,900,1440,9.303833333333332,
3546,default,block1,frank,ai,0.66,5998,pretend,24,pretend,C,[],20,Yes,,Female,English,Chrome,Mac,900,1440,9.303833333333332,
3546,default,block1,danny,ai,0.76,5000,hear,25,hear,C,[],20,Yes,,Female,English,Chrome,Mac,900,1440,9.303833333333332,
3546,default,block1,zoe,ai,0.23,10818,acknowledge,26,acknowledge,C,[],20,Yes,,Female,English,Chrome,Mac,900,1440,9.303833333333332,
3546,default,block1,sophia,ai,0.76,6366,discover,27,discover,C,[],20,Yes,,Female,English,Chrome,Mac,900,1440,9.303833333333332,
3546,default,block1,hat,ai,0.32,5698,MC,28,MC,MC,[],20,Yes,,Female,English,Chrome,Mac,900,1440,9.303833333333332,
3546,default,block1,mia,ai,0.77,4392,admit,29,admit,C,[],20,Yes,,Female,English,Chrome,Mac,900,1440,9.303833333333332,
3546,default,block1,jon,ai,0.76,2814,be_right,30,be_right,C,[],20,Yes,,Female,English,Chrome,Mac,900,1440,9.303833333333332,
3546,default,block2,jon,projective,0.21,18342,be_right,32,be_right,C,[],20,Yes,,Female,English,Chrome,Mac,900,1440,9.303833333333332,
3546,default,block2,kids,projective,0.91,6162,MC,33,MC,MC,[],20,Yes,,Female,English,Chrome,Mac,900,1440,9.303833333333332,
3546,default,block2,olivia,projective,0.23,11009,confirm,34,confirm,C,[],20,Yes,,Female,English,Chrome,Mac,900,1440,9.303833333333332,
3546,default,block2,garage,projective,0.91,5105,MC,35,MC,MC,[],20,Yes,,Female,English,Chrome,Mac,900,1440,9.303833333333332,
3546,default,block2,danny,projective,0.2,5017,hear,36,hear,C,[],20,Yes,,Female,English,Chrome,Mac,900,1440,9.303833333333332,
3546,default,block2,tony,projective,0.18,2692,be_annoyed,37,be_annoyed,C,[],20,Yes,,Female,English,Chrome,Mac,900,1440,9.303833333333332,
3546,default,block2,mary,projective,0.8,13279,announce,38,announce,C,[],20,Yes,,Female,English,Chrome,Mac,900,1440,9.303833333333332,
3546,default,block2,emma,projective,0.76,9146,know,39,know,C,[],20,Yes,,Female,English,Chrome,Mac,900,1440,9.303833333333332,
3546,default,block2,grace,projective,0.25,4900,inform,40,inform,C,[],20,Yes,,Female,English,Chrome,Mac,900,1440,9.303833333333332,
3546,default,block2,mia,projective,0.27,8698,admit,41,admit,C,[],20,Yes,,Female,English,Chrome,Mac,900,1440,9.303833333333332,
3546,default,block2,isabella,projective,0.3,6455,suggest,42,suggest,C,[],20,Yes,,Female,English,Chrome,Mac,900,1440,9.303833333333332,
3546,default,block2,hat,projective,0.86,6719,MC,43,MC,MC,[],20,Yes,,Female,English,Chrome,Mac,900,1440,9.303833333333332,
3546,default,block2,emily,projective,0.74,4248,see,44,see,C,[],20,Yes,,Female,English,Chrome,Mac,900,1440,9.303833333333332,
3546,default,block2,julian,projective,0.3,6405,confess,45,confess,C,[],20,Yes,,Female,English,Chrome,Mac,900,1440,9.303833333333332,
3546,default,block2,josie,projective,0.27,5773,demonstrate,46,demonstrate,C,[],20,Yes,,Female,English,Chrome,Mac,900,1440,9.303833333333332,
3546,default,block2,pizza,projective,0.83,5174,MC,47,MC,MC,[],20,Yes,,Female,English,Chrome,Mac,900,1440,9.303833333333332,
3546,default,block2,muffins,projective,0.8,5839,MC,48,MC,MC,[],20,Yes,,Female,English,Chrome,Mac,900,1440,9.303833333333332,
3546,default,block2,sophia,projective,0.74,5773,discover,49,discover,C,[],20,Yes,,Female,English,Chrome,Mac,900,1440,9.303833333333332,
3546,default,block2,jayden,projective,0.29,7429,reveal,50,reveal,C,[],20,Yes,,Female,English,Chrome,Mac,900,1440,9.303833333333332,
3546,default,block2,zoe,projective,0.71,6691,acknowledge,51,acknowledge,C,[],20,Yes,,Female,English,Chrome,Mac,900,1440,9.303833333333332,
3546,default,block2,owen,projective,0.34,6234,think,52,think,C,[],20,Yes,,Female,English,Chrome,Mac,900,1440,9.303833333333332,
3546,default,block2,ballet,projective,0.88,3982,MC,53,MC,MC,[],20,Yes,,Female,English,Chrome,Mac,900,1440,9.303833333333332,
3546,default,block2,jackson,projective,0.28,4461,say,54,say,C,[],20,Yes,,Female,English,Chrome,Mac,900,1440,9.303833333333332,
3546,default,block2,frank,projective,0.09,6324,pretend,55,pretend,C,[],20,Yes,,Female,English,Chrome,Mac,900,1440,9.303833333333332,
3546,default,block2,josh,projective,0.17,6204,prove,56,prove,C,[],20,Yes,,Female,English,Chrome,Mac,900,1440,9.303833333333332,
3546,default,block2,charley,projective,0.21,4625,establish,57,establish,C,[],20,Yes,,Female,English,Chrome,Mac,900,1440,9.303833333333332,
3552,default,block1,ballet,projective,0.95,7740,MC,5,MC,MC,[],27,Yes,,Female,english,Chrome,Mac,900,1440,7.571833333333333,
3552,default,block1,sophia,projective,0.67,18604,admit,6,admit,C,[],27,Yes,,Female,english,Chrome,Mac,900,1440,7.571833333333333,
3552,default,block1,zoe,projective,0.62,13964,think,7,think,C,[],27,Yes,,Female,english,Chrome,Mac,900,1440,7.571833333333333,
3552,default,block1,grace,projective,0.57,13404,hear,8,hear,C,[],27,Yes,,Female,english,Chrome,Mac,900,1440,7.571833333333333,
3552,default,block1,hat,projective,0.94,5882,MC,9,MC,MC,[],27,Yes,,Female,english,Chrome,Mac,900,1440,7.571833333333333,
3552,default,block1,muffins,projective,0.97,4510,MC,10,MC,MC,[],27,Yes,,Female,english,Chrome,Mac,900,1440,7.571833333333333,
3552,default,block1,mia,projective,0.66,5547,be_annoyed,11,be_annoyed,C,[],27,Yes,,Female,english,Chrome,Mac,900,1440,7.571833333333333,
3552,default,block1,mary,projective,0.74,5325,announce,12,announce,C,[],27,Yes,,Female,english,Chrome,Mac,900,1440,7.571833333333333,
3552,default,block1,tony,projective,0.59,7828,demonstrate,13,demonstrate,C,[],27,Yes,,Female,english,Chrome,Mac,900,1440,7.571833333333333,
3552,default,block1,pizza,projective,0.97,5226,MC,14,MC,MC,[],27,Yes,,Female,english,Chrome,Mac,900,1440,7.571833333333333,
3552,default,block1,jon,projective,0.71,6527,reveal,15,reveal,C,[],27,Yes,,Female,english,Chrome,Mac,900,1440,7.571833333333333,
3552,default,block1,kids,projective,0.97,5117,MC,16,MC,MC,[],27,Yes,,Female,english,Chrome,Mac,900,1440,7.571833333333333,
3552,default,block1,frank,projective,0.7,4591,prove,17,prove,C,[],27,Yes,,Female,english,Chrome,Mac,900,1440,7.571833333333333,
3552,default,block1,garage,projective,0.96,6727,MC,18,MC,MC,[],27,Yes,,Female,english,Chrome,Mac,900,1440,7.571833333333333,
3552,default,block1,josh,projective,0.63,4428,be_right,19,be_right,C,[],27,Yes,,Female,english,Chrome,Mac,900,1440,7.571833333333333,
3552,default,block1,josie,projective,0.33,4289,suggest,20,suggest,C,[],27,Yes,,Female,english,Chrome,Mac,900,1440,7.571833333333333,
3552,default,block1,emily,projective,0.63,15536,acknowledge,21,acknowledge,C,[],27,Yes,,Female,english,Chrome,Mac,900,1440,7.571833333333333,
3552,default,block1,olivia,projective,0.58,3836,know,22,know,C,[],27,Yes,,Female,english,Chrome,Mac,900,1440,7.571833333333333,
3552,default,block1,jackson,projective,0.6,6658,discover,23,discover,C,[],27,Yes,,Female,english,Chrome,Mac,900,1440,7.571833333333333,
3552,default,block1,emma,projective,0.1,7762,pretend,24,pretend,C,[],27,Yes,,Female,english,Chrome,Mac,900,1440,7.571833333333333,
3552,default,block1,owen,projective,0.59,6161,confess,25,confess,C,[],27,Yes,,Female,english,Chrome,Mac,900,1440,7.571833333333333,
3552,default,block1,isabella,projective,0.59,17197,inform,26,inform,C,[],27,Yes,,Female,english,Chrome,Mac,900,1440,7.571833333333333,
3552,default,block1,julian,projective,0.55,7339,confirm,27,confirm,C,[],27,Yes,,Female,english,Chrome,Mac,900,1440,7.571833333333333,
3552,default,block1,danny,projective,0.72,7891,see,28,see,C,[],27,Yes,,Female,english,Chrome,Mac,900,1440,7.571833333333333,
3552,default,block1,charley,projective,0.34,4404,say,29,say,C,[],27,Yes,,Female,english,Chrome,Mac,900,1440,7.571833333333333,
3552,default,block1,jayden,projective,0.41,4977,establish,30,establish,C,[],27,Yes,,Female,english,Chrome,Mac,900,1440,7.571833333333333,
3552,default,block2,jackson,ai,0.9,15963,discover,32,discover,C,[],27,Yes,,Female,english,Chrome,Mac,900,1440,7.571833333333333,
3552,default,block2,danny,ai,0.94,7849,see,33,see,C,[],27,Yes,,Female,english,Chrome,Mac,900,1440,7.571833333333333,
3552,default,block2,josie,ai,0.92,7510,suggest,34,suggest,C,[],27,Yes,,Female,english,Chrome,Mac,900,1440,7.571833333333333,
3552,default,block2,kids,ai,0.08,15829,MC,35,MC,MC,[],27,Yes,,Female,english,Chrome,Mac,900,1440,7.571833333333333,
3552,default,block2,isabella,ai,0.9,8058,inform,36,inform,C,[],27,Yes,,Female,english,Chrome,Mac,900,1440,7.571833333333333,
3552,default,block2,tony,ai,0.92,6453,demonstrate,37,demonstrate,C,[],27,Yes,,Female,english,Chrome,Mac,900,1440,7.571833333333333,
3552,default,block2,mia,ai,0.94,9595,be_annoyed,38,be_annoyed,C,[],27,Yes,,Female,english,Chrome,Mac,900,1440,7.571833333333333,
3552,default,block2,hat,ai,0.05,4819,MC,39,MC,MC,[],27,Yes,,Female,english,Chrome,Mac,900,1440,7.571833333333333,
3552,default,block2,olivia,ai,0.96,5935,know,40,know,C,[],27,Yes,,Female,english,Chrome,Mac,900,1440,7.571833333333333,
3552,default,block2,julian,ai,0.91,4638,confirm,41,confirm,C,[],27,Yes,,Female,english,Chrome,Mac,900,1440,7.571833333333333,
3552,default,block2,ballet,ai,0.05,3772,MC,42,MC,MC,[],27,Yes,,Female,english,Chrome,Mac,900,1440,7.571833333333333,
3552,default,block2,sophia,ai,0.94,4788,admit,43,admit,C,[],27,Yes,,Female,english,Chrome,Mac,900,1440,7.571833333333333,
3552,default,block2,garage,ai,0.08,6250,MC,44,MC,MC,[],27,Yes,,Female,english,Chrome,Mac,900,1440,7.571833333333333,
3552,default,block2,jayden,ai,0.93,4129,establish,45,establish,C,[],27,Yes,,Female,english,Chrome,Mac,900,1440,7.571833333333333,
3552,default,block2,zoe,ai,0.95,5009,think,46,think,C,[],27,Yes,,Female,english,Chrome,Mac,900,1440,7.571833333333333,
3552,default,block2,owen,ai,0.95,4484,confess,47,confess,C,[],27,Yes,,Female,english,Chrome,Mac,900,1440,7.571833333333333,
3552,default,block2,emily,ai,0.96,4056,acknowledge,48,acknowledge,C,[],27,Yes,,Female,english,Chrome,Mac,900,1440,7.571833333333333,
3552,default,block2,grace,ai,0.95,4339,hear,49,hear,C,[],27,Yes,,Female,english,Chrome,Mac,900,1440,7.571833333333333,
3552,default,block2,charley,ai,0.95,5499,say,50,say,C,[],27,Yes,,Female,english,Chrome,Mac,900,1440,7.571833333333333,
3552,default,block2,mary,ai,0.94,11552,announce,51,announce,C,[],27,Yes,,Female,english,Chrome,Mac,900,1440,7.571833333333333,
3552,default,block2,emma,ai,0.95,6443,pretend,52,pretend,C,[],27,Yes,,Female,english,Chrome,Mac,900,1440,7.571833333333333,
3552,default,block2,josh,ai,0.92,4811,be_right,53,be_right,C,[],27,Yes,,Female,english,Chrome,Mac,900,1440,7.571833333333333,
3552,default,block2,pizza,ai,0.09,4648,MC,54,MC,MC,[],27,Yes,,Female,english,Chrome,Mac,900,1440,7.571833333333333,
3552,default,block2,jon,ai,0.93,4063,reveal,55,reveal,C,[],27,Yes,,Female,english,Chrome,Mac,900,1440,7.571833333333333,
3552,default,block2,frank,ai,0.9,32089,prove,56,prove,C,[],27,Yes,,Female,english,Chrome,Mac,900,1440,7.571833333333333,
3552,default,block2,muffins,ai,0.72,6962,MC,57,MC,MC,[],27,Yes,,Female,english,Chrome,Mac,900,1440,7.571833333333333,
3486,default,block1,sophia,ai,1,28768,inform,5,inform,C,[],27,Yes,,Female,English,Chrome,Mac,900,1440,13.4266,
3486,default,block1,julian,ai,0.25,12388,confirm,6,confirm,C,[],27,Yes,,Female,English,Chrome,Mac,900,1440,13.4266,
3486,default,block1,garage,ai,0.17,31870,MC,7,MC,MC,[],27,Yes,,Female,English,Chrome,Mac,900,1440,13.4266,
3486,default,block1,tony,ai,0.4,14505,establish,8,establish,C,[],27,Yes,,Female,English,Chrome,Mac,900,1440,13.4266,
3486,default,block1,emily,ai,0.62,23729,hear,9,hear,C,[],27,Yes,,Female,English,Chrome,Mac,900,1440,13.4266,
3486,default,block1,pizza,ai,0,6985,MC,10,MC,MC,[],27,Yes,,Female,English,Chrome,Mac,900,1440,13.4266,
3486,default,block1,owen,ai,0.41,37846,demonstrate,11,demonstrate,C,[],27,Yes,,Female,English,Chrome,Mac,900,1440,13.4266,
3486,default,block1,muffins,ai,0.12,22229,MC,12,MC,MC,[],27,Yes,,Female,English,Chrome,Mac,900,1440,13.4266,
3486,default,block1,grace,ai,0.7,30352,acknowledge,13,acknowledge,C,[],27,Yes,,Female,English,Chrome,Mac,900,1440,13.4266,
3486,default,block1,danny,ai,0.86,7278,discover,14,discover,C,[],27,Yes,,Female,English,Chrome,Mac,900,1440,13.4266,
3486,default,block1,jayden,ai,0.28,6372,prove,15,prove,C,[],27,Yes,,Female,English,Chrome,Mac,900,1440,13.4266,
3486,default,block1,charley,ai,0.4,10325,see,16,see,C,[],27,Yes,,Female,English,Chrome,Mac,900,1440,13.4266,
3486,default,block1,mia,ai,0.74,9570,confess,17,confess,C,[],27,Yes,,Female,English,Chrome,Mac,900,1440,13.4266,
3486,default,block1,kids,ai,0.15,16489,MC,18,MC,MC,[],27,Yes,,Female,English,Chrome,Mac,900,1440,13.4266,
3486,default,block1,josh,ai,0.6,7672,suggest,19,suggest,C,[],27,Yes,,Female,English,Chrome,Mac,900,1440,13.4266,
3486,default,block1,frank,ai,0.77,15976,know,20,know,C,[],27,Yes,,Female,English,Chrome,Mac,900,1440,13.4266,
3486,default,block1,zoe,ai,0.9,9827,admit,21,admit,C,[],27,Yes,,Female,English,Chrome,Mac,900,1440,13.4266,
3486,default,block1,emma,ai,0.37,9208,be_annoyed,22,be_annoyed,C,[],27,Yes,,Female,English,Chrome,Mac,900,1440,13.4266,
3486,default,block1,isabella,ai,0.64,6483,say,23,say,C,[],27,Yes,,Female,English,Chrome,Mac,900,1440,13.4266,
3486,default,block1,jackson,ai,0.57,19182,reveal,24,reveal,C,[],27,Yes,,Female,English,Chrome,Mac,900,1440,13.4266,
3486,default,block1,mary,ai,0.8,10375,think,25,think,C,[],27,Yes,,Female,English,Chrome,Mac,900,1440,13.4266,
3486,default,block1,josie,ai,0.63,20334,be_right,26,be_right,C,[],27,Yes,,Female,English,Chrome,Mac,900,1440,13.4266,
3486,default,block1,ballet,ai,0.1,4736,MC,27,MC,MC,[],27,Yes,,Female,English,Chrome,Mac,900,1440,13.4266,
3486,default,block1,hat,ai,0.75,5968,MC,28,MC,MC,[],27,Yes,,Female,English,Chrome,Mac,900,1440,13.4266,
3486,default,block1,jon,ai,0.22,9903,pretend,29,pretend,C,[],27,Yes,,Female,English,Chrome,Mac,900,1440,13.4266,
3486,default,block1,olivia,ai,0.79,13822,announce,30,announce,C,[],27,Yes,,Female,English,Chrome,Mac,900,1440,13.4266,
3486,default,block2,jon,projective,0,24491,pretend,32,pretend,C,[],27,Yes,,Female,English,Chrome,Mac,900,1440,13.4266,
3486,default,block2,sophia,projective,0.98,19737,inform,33,inform,C,[],27,Yes,,Female,English,Chrome,Mac,900,1440,13.4266,
3486,default,block2,frank,projective,0.98,6116,know,34,know,C,[],27,Yes,,Female,English,Chrome,Mac,900,1440,13.4266,
3486,default,block2,emily,projective,0.91,30498,hear,35,hear,C,[],27,Yes,,Female,English,Chrome,Mac,900,1440,13.4266,
3486,default,block2,olivia,projective,1,8858,announce,36,announce,C,[],27,Yes,,Female,English,Chrome,Mac,900,1440,13.4266,
3486,default,block2,charley,projective,0.93,8758,see,37,see,C,[],27,Yes,,Female,English,Chrome,Mac,900,1440,13.4266,
3486,default,block2,mary,projective,0.39,12251,think,38,think,C,[],27,Yes,,Female,English,Chrome,Mac,900,1440,13.4266,
3486,default,block2,pizza,projective,0.95,8396,MC,39,MC,MC,[],27,Yes,,Female,English,Chrome,Mac,900,1440,13.4266,
3486,default,block2,zoe,projective,0.78,15761,admit,40,admit,C,[],27,Yes,,Female,English,Chrome,Mac,900,1440,13.4266,
3486,default,block2,garage,projective,0.89,9971,MC,41,MC,MC,[],27,Yes,,Female,English,Chrome,Mac,900,1440,13.4266,
3486,default,block2,tony,projective,0.82,9451,establish,42,establish,C,[],27,Yes,,Female,English,Chrome,Mac,900,1440,13.4266,
3486,default,block2,julian,projective,0.5,6276,confirm,43,confirm,C,[],27,Yes,,Female,English,Chrome,Mac,900,1440,13.4266,
3486,default,block2,ballet,projective,1,8889,MC,44,MC,MC,[],27,Yes,,Female,English,Chrome,Mac,900,1440,13.4266,
3486,default,block2,jackson,projective,1,11605,reveal,45,reveal,C,[],27,Yes,,Female,English,Chrome,Mac,900,1440,13.4266,
3486,default,block2,jayden,projective,0.81,11190,prove,46,prove,C,[],27,Yes,,Female,English,Chrome,Mac,900,1440,13.4266,
3486,default,block2,hat,projective,0.99,7035,MC,47,MC,MC,[],27,Yes,,Female,English,Chrome,Mac,900,1440,13.4266,
3486,default,block2,emma,projective,1,15534,be_annoyed,48,be_annoyed,C,[],27,Yes,,Female,English,Chrome,Mac,900,1440,13.4266,
3486,default,block2,josh,projective,0.72,9168,suggest,49,suggest,C,[],27,Yes,,Female,English,Chrome,Mac,900,1440,13.4266,
3486,default,block2,muffins,projective,0.99,4205,MC,50,MC,MC,[],27,Yes,,Female,English,Chrome,Mac,900,1440,13.4266,
3486,default,block2,owen,projective,0.88,6512,demonstrate,51,demonstrate,C,[],27,Yes,,Female,English,Chrome,Mac,900,1440,13.4266,
3486,default,block2,danny,projective,0.97,7192,discover,52,discover,C,[],27,Yes,,Female,English,Chrome,Mac,900,1440,13.4266,
3486,default,block2,grace,projective,0.9,11430,acknowledge,53,acknowledge,C,[],27,Yes,,Female,English,Chrome,Mac,900,1440,13.4266,
3486,default,block2,mia,projective,0.97,8309,confess,54,confess,C,[],27,Yes,,Female,English,Chrome,Mac,900,1440,13.4266,
3486,default,block2,josie,projective,0.57,52330,be_right,55,be_right,C,[],27,Yes,,Female,English,Chrome,Mac,900,1440,13.4266,
3486,default,block2,isabella,projective,1,10323,say,56,say,C,[],27,Yes,,Female,English,Chrome,Mac,900,1440,13.4266,
3486,default,block2,kids,projective,0.98,8058,MC,57,MC,MC,[],27,Yes,,Female,English,Chrome,Mac,900,1440,13.4266,
3453,default,block1,owen,ai,0.99,81379,be_annoyed,5,be_annoyed,C,[],27,Yes,,Female,English,Chrome,Windows,768,1366,11.775183333333333,
3453,default,block1,ballet,ai,0.03,40713,MC,6,MC,MC,[],27,Yes,,Female,English,Chrome,Windows,768,1366,11.775183333333333,
3453,default,block1,jayden,ai,1,81247,say,7,say,C,[],27,Yes,,Female,English,Chrome,Windows,768,1366,11.775183333333333,
3453,default,block1,charley,ai,0.99,10458,establish,8,establish,C,[],27,Yes,,Female,English,Chrome,Windows,768,1366,11.775183333333333,
3453,default,block1,josie,ai,0.97,9365,suggest,9,suggest,C,[],27,Yes,,Female,English,Chrome,Windows,768,1366,11.775183333333333,
3453,default,block1,pizza,ai,0.02,10000,MC,10,MC,MC,[],27,Yes,,Female,English,Chrome,Windows,768,1366,11.775183333333333,
3453,default,block1,garage,ai,0.03,9931,MC,11,MC,MC,[],27,Yes,,Female,English,Chrome,Windows,768,1366,11.775183333333333,
3453,default,block1,olivia,ai,0.98,10985,admit,12,admit,C,[],27,Yes,,Female,English,Chrome,Windows,768,1366,11.775183333333333,
3453,default,block1,emma,ai,0.99,9475,pretend,13,pretend,C,[],27,Yes,,Female,English,Chrome,Windows,768,1366,11.775183333333333,
3453,default,block1,zoe,ai,0.98,10693,demonstrate,14,demonstrate,C,[],27,Yes,,Female,English,Chrome,Windows,768,1366,11.775183333333333,
3453,default,block1,mia,ai,1,8297,prove,15,prove,C,[],27,Yes,,Female,English,Chrome,Windows,768,1366,11.775183333333333,
3453,default,block1,emily,ai,0.98,8024,hear,16,hear,C,[],27,Yes,,Female,English,Chrome,Windows,768,1366,11.775183333333333,
3453,default,block1,julian,ai,0.98,6513,confirm,17,confirm,C,[],27,Yes,,Female,English,Chrome,Windows,768,1366,11.775183333333333,
3453,default,block1,tony,ai,0.98,8882,announce,18,announce,C,[],27,Yes,,Female,English,Chrome,Windows,768,1366,11.775183333333333,
3453,default,block1,mary,ai,0.98,9451,acknowledge,19,acknowledge,C,[],27,Yes,,Female,English,Chrome,Windows,768,1366,11.775183333333333,
3453,default,block1,hat,ai,0.02,5926,MC,20,MC,MC,[],27,Yes,,Female,English,Chrome,Windows,768,1366,11.775183333333333,
3453,default,block1,kids,ai,0.03,5210,MC,21,MC,MC,[],27,Yes,,Female,English,Chrome,Windows,768,1366,11.775183333333333,
3453,default,block1,grace,ai,0.99,8315,see,22,see,C,[],27,Yes,,Female,English,Chrome,Windows,768,1366,11.775183333333333,
3453,default,block1,muffins,ai,0.02,5905,MC,23,MC,MC,[],27,Yes,,Female,English,Chrome,Windows,768,1366,11.775183333333333,
3453,default,block1,isabella,ai,0.99,6519,reveal,24,reveal,C,[],27,Yes,,Female,English,Chrome,Windows,768,1366,11.775183333333333,
3453,default,block1,jon,ai,0.98,8162,know,25,know,C,[],27,Yes,,Female,English,Chrome,Windows,768,1366,11.775183333333333,
3453,default,block1,danny,ai,1,17083,confess,26,confess,C,[],27,Yes,,Female,English,Chrome,Windows,768,1366,11.775183333333333,
3453,default,block1,jackson,ai,0.99,7425,be_right,27,be_right,C,[],27,Yes,,Female,English,Chrome,Windows,768,1366,11.775183333333333,
3453,default,block1,frank,ai,0.98,7824,discover,28,discover,C,[],27,Yes,,Female,English,Chrome,Windows,768,1366,11.775183333333333,
3453,default,block1,josh,ai,0.97,8019,inform,29,inform,C,[],27,Yes,,Female,English,Chrome,Windows,768,1366,11.775183333333333,
3453,default,block1,sophia,ai,0.98,7121,think,30,think,C,[],27,Yes,,Female,English,Chrome,Windows,768,1366,11.775183333333333,
3453,default,block2,emma,projective,0.02,19472,pretend,32,pretend,C,[],27,Yes,,Female,English,Chrome,Windows,768,1366,11.775183333333333,
3453,default,block2,josh,projective,0.98,13878,inform,33,inform,C,[],27,Yes,,Female,English,Chrome,Windows,768,1366,11.775183333333333,
3453,default,block2,julian,projective,0.97,9945,confirm,34,confirm,C,[],27,Yes,,Female,English,Chrome,Windows,768,1366,11.775183333333333,
3453,default,block2,mia,projective,0.02,11394,prove,35,prove,C,[],27,Yes,,Female,English,Chrome,Windows,768,1366,11.775183333333333,
3453,default,block2,frank,projective,0.98,5596,discover,36,discover,C,[],27,Yes,,Female,English,Chrome,Windows,768,1366,11.775183333333333,
3453,default,block2,jackson,projective,0.03,7178,be_right,37,be_right,C,[],27,Yes,,Female,English,Chrome,Windows,768,1366,11.775183333333333,
3453,default,block2,sophia,projective,0.02,8634,think,38,think,C,[],27,Yes,,Female,English,Chrome,Windows,768,1366,11.775183333333333,
3453,default,block2,tony,projective,0.99,10674,announce,39,announce,C,[],27,Yes,,Female,English,Chrome,Windows,768,1366,11.775183333333333,
3453,default,block2,owen,projective,0.99,8495,be_annoyed,40,be_annoyed,C,[],27,Yes,,Female,English,Chrome,Windows,768,1366,11.775183333333333,
3453,default,block2,muffins,projective,0.95,7185,MC,41,MC,MC,[],27,Yes,,Female,English,Chrome,Windows,768,1366,11.775183333333333,
3453,default,block2,isabella,projective,0.96,5958,reveal,42,reveal,C,[],27,Yes,,Female,English,Chrome,Windows,768,1366,11.775183333333333,
3453,default,block2,josie,projective,0.99,8573,suggest,43,suggest,C,[],27,Yes,,Female,English,Chrome,Windows,768,1366,11.775183333333333,
3453,default,block2,garage,projective,0.97,5314,MC,44,MC,MC,[],27,Yes,,Female,English,Chrome,Windows,768,1366,11.775183333333333,
3453,default,block2,danny,projective,0.96,6584,confess,45,confess,C,[],27,Yes,,Female,English,Chrome,Windows,768,1366,11.775183333333333,
3453,default,block2,kids,projective,0.99,5412,MC,46,MC,MC,[],27,Yes,,Female,English,Chrome,Windows,768,1366,11.775183333333333,
3453,default,block2,pizza,projective,0.97,4456,MC,47,MC,MC,[],27,Yes,,Female,English,Chrome,Windows,768,1366,11.775183333333333,
3453,default,block2,grace,projective,0.97,8658,see,48,see,C,[],27,Yes,,Female,English,Chrome,Windows,768,1366,11.775183333333333,
3453,default,block2,jon,projective,0.99,4922,know,49,know,C,[],27,Yes,,Female,English,Chrome,Windows,768,1366,11.775183333333333,
3453,default,block2,charley,projective,0,7645,establish,50,establish,C,[],27,Yes,,Female,English,Chrome,Windows,768,1366,11.775183333333333,
3453,default,block2,ballet,projective,1,3626,MC,51,MC,MC,[],27,Yes,,Female,English,Chrome,Windows,768,1366,11.775183333333333,
3453,default,block2,mary,projective,0.96,4934,acknowledge,52,acknowledge,C,[],27,Yes,,Female,English,Chrome,Windows,768,1366,11.775183333333333,
3453,default,block2,emily,projective,0.97,7535,hear,53,hear,C,[],27,Yes,,Female,English,Chrome,Windows,768,1366,11.775183333333333,
3453,default,block2,hat,projective,0.98,3890,MC,54,MC,MC,[],27,Yes,,Female,English,Chrome,Windows,768,1366,11.775183333333333,
3453,default,block2,zoe,projective,0.97,4555,demonstrate,55,demonstrate,C,[],27,Yes,,Female,English,Chrome,Windows,768,1366,11.775183333333333,
3453,default,block2,olivia,projective,0.97,3441,admit,56,admit,C,[],27,Yes,,Female,English,Chrome,Windows,768,1366,11.775183333333333,
3453,default,block2,jayden,projective,1,7273,say,57,say,C,[],27,Yes,,Female,English,Chrome,Windows,768,1366,11.775183333333333,
3539,default,block1,mia,projective,0.06,17060,establish,5,establish,C,[],27,Yes,,Female,English ,Safari,iPhone/iPod,896,414,8.957766666666666,
3539,default,block1,julian,projective,0.11,9740,be_right,6,be_right,C,[],27,Yes,,Female,English ,Safari,iPhone/iPod,896,414,8.957766666666666,
3539,default,block1,josh,projective,0.12,8725,know,7,know,C,[],27,Yes,,Female,English ,Safari,iPhone/iPod,896,414,8.957766666666666,
3539,default,block1,kids,projective,0.87,11857,MC,8,MC,MC,[],27,Yes,,Female,English ,Safari,iPhone/iPod,896,414,8.957766666666666,
3539,default,block1,charley,projective,0.58,12802,think,9,think,C,[],27,Yes,,Female,English ,Safari,iPhone/iPod,896,414,8.957766666666666,
3539,default,block1,emma,projective,0.93,9908,discover,10,discover,C,[],27,Yes,,Female,English ,Safari,iPhone/iPod,896,414,8.957766666666666,
3539,default,block1,emily,projective,0.74,9238,demonstrate,11,demonstrate,C,[],27,Yes,,Female,English ,Safari,iPhone/iPod,896,414,8.957766666666666,
3539,default,block1,sophia,projective,0.56,8231,confirm,12,confirm,C,[],27,Yes,,Female,English ,Safari,iPhone/iPod,896,414,8.957766666666666,
3539,default,block1,jon,projective,0.57,12403,admit,13,admit,C,[],27,Yes,,Female,English ,Safari,iPhone/iPod,896,414,8.957766666666666,
3539,default,block1,josie,projective,0.94,11513,be_annoyed,14,be_annoyed,C,[],27,Yes,,Female,English ,Safari,iPhone/iPod,896,414,8.957766666666666,
3539,default,block1,muffins,projective,0.98,9553,MC,15,MC,MC,[],27,Yes,,Female,English ,Safari,iPhone/iPod,896,414,8.957766666666666,
3539,default,block1,mary,projective,0.98,7353,announce,16,announce,C,[],27,Yes,,Female,English ,Safari,iPhone/iPod,896,414,8.957766666666666,
3539,default,block1,tony,projective,0.99,7436,hear,17,hear,C,[],27,Yes,,Female,English ,Safari,iPhone/iPod,896,414,8.957766666666666,
3539,default,block1,hat,projective,0.93,6712,MC,18,MC,MC,[],27,Yes,,Female,English ,Safari,iPhone/iPod,896,414,8.957766666666666,
3539,default,block1,jayden,projective,0.67,12932,reveal,19,reveal,C,[],27,Yes,,Female,English ,Safari,iPhone/iPod,896,414,8.957766666666666,
3539,default,block1,danny,projective,0.36,12933,suggest,20,suggest,C,[],27,Yes,,Female,English ,Safari,iPhone/iPod,896,414,8.957766666666666,
3539,default,block1,owen,projective,0.13,22458,pretend,21,pretend,C,[],27,Yes,,Female,English ,Safari,iPhone/iPod,896,414,8.957766666666666,
3539,default,block1,frank,projective,0.74,10577,inform,22,inform,C,[],27,Yes,,Female,English ,Safari,iPhone/iPod,896,414,8.957766666666666,
3539,default,block1,garage,projective,0.99,6988,MC,23,MC,MC,[],27,Yes,,Female,English ,Safari,iPhone/iPod,896,414,8.957766666666666,
3539,default,block1,grace,projective,0.94,19316,acknowledge,24,acknowledge,C,[],27,Yes,,Female,English ,Safari,iPhone/iPod,896,414,8.957766666666666,
3539,default,block1,jackson,projective,0.35,9100,prove,25,prove,C,[],27,Yes,,Female,English ,Safari,iPhone/iPod,896,414,8.957766666666666,
3539,default,block1,olivia,projective,0.33,7488,confess,26,confess,C,[],27,Yes,,Female,English ,Safari,iPhone/iPod,896,414,8.957766666666666,
3539,default,block1,zoe,projective,0.84,8431,see,27,see,C,[],27,Yes,,Female,English ,Safari,iPhone/iPod,896,414,8.957766666666666,
3539,default,block1,isabella,projective,0.53,14586,say,28,say,C,[],27,Yes,,Female,English ,Safari,iPhone/iPod,896,414,8.957766666666666,
3539,default,block1,pizza,projective,0.95,6571,MC,29,MC,MC,[],27,Yes,,Female,English ,Safari,iPhone/iPod,896,414,8.957766666666666,
3539,default,block1,ballet,projective,0.97,8151,MC,30,MC,MC,[],27,Yes,,Female,English ,Safari,iPhone/iPod,896,414,8.957766666666666,
3539,default,block2,emily,ai,0.58,31191,demonstrate,32,demonstrate,C,[],27,Yes,,Female,English ,Safari,iPhone/iPod,896,414,8.957766666666666,
3539,default,block2,mia,ai,0.8,7764,establish,33,establish,C,[],27,Yes,,Female,English ,Safari,iPhone/iPod,896,414,8.957766666666666,
3539,default,block2,zoe,ai,0.77,11859,see,34,see,C,[],27,Yes,,Female,English ,Safari,iPhone/iPod,896,414,8.957766666666666,
3539,default,block2,hat,ai,0.35,7683,MC,35,MC,MC,[],27,Yes,,Female,English ,Safari,iPhone/iPod,896,414,8.957766666666666,
3539,default,block2,emma,ai,0.35,7560,discover,36,discover,C,[],27,Yes,,Female,English ,Safari,iPhone/iPod,896,414,8.957766666666666,
3539,default,block2,mary,ai,0.77,8442,announce,37,announce,C,[],27,Yes,,Female,English ,Safari,iPhone/iPod,896,414,8.957766666666666,
3539,default,block2,charley,ai,0.51,4596,think,38,think,C,[],27,Yes,,Female,English ,Safari,iPhone/iPod,896,414,8.957766666666666,
3539,default,block2,danny,ai,0.59,3999,suggest,39,suggest,C,[],27,Yes,,Female,English ,Safari,iPhone/iPod,896,414,8.957766666666666,
3539,default,block2,grace,ai,0.51,4361,acknowledge,40,acknowledge,C,[],27,Yes,,Female,English ,Safari,iPhone/iPod,896,414,8.957766666666666,
3539,default,block2,jackson,ai,0.62,4422,prove,41,prove,C,[],27,Yes,,Female,English ,Safari,iPhone/iPod,896,414,8.957766666666666,
3539,default,block2,ballet,ai,0.21,8984,MC,42,MC,MC,[],27,Yes,,Female,English ,Safari,iPhone/iPod,896,414,8.957766666666666,
3539,default,block2,josh,ai,0.77,3639,know,43,know,C,[],27,Yes,,Female,English ,Safari,iPhone/iPod,896,414,8.957766666666666,
3539,default,block2,muffins,ai,0.19,4324,MC,44,MC,MC,[],27,Yes,,Female,English ,Safari,iPhone/iPod,896,414,8.957766666666666,
3539,default,block2,tony,ai,0.75,4710,hear,45,hear,C,[],27,Yes,,Female,English ,Safari,iPhone/iPod,896,414,8.957766666666666,
3539,default,block2,owen,ai,0.52,5071,pretend,46,pretend,C,[],27,Yes,,Female,English ,Safari,iPhone/iPod,896,414,8.957766666666666,
3539,default,block2,sophia,ai,0.42,4529,confirm,47,confirm,C,[],27,Yes,,Female,English ,Safari,iPhone/iPod,896,414,8.957766666666666,
3539,default,block2,garage,ai,0.08,7904,MC,48,MC,MC,[],27,Yes,,Female,English ,Safari,iPhone/iPod,896,414,8.957766666666666,
3539,default,block2,jayden,ai,0.63,7504,reveal,49,reveal,C,[],27,Yes,,Female,English ,Safari,iPhone/iPod,896,414,8.957766666666666,
3539,default,block2,jon,ai,0.13,4412,admit,50,admit,C,[],27,Yes,,Female,English ,Safari,iPhone/iPod,896,414,8.957766666666666,
3539,default,block2,olivia,ai,0.71,4416,confess,51,confess,C,[],27,Yes,,Female,English ,Safari,iPhone/iPod,896,414,8.957766666666666,
3539,default,block2,isabella,ai,0.62,4036,say,52,say,C,[],27,Yes,,Female,English ,Safari,iPhone/iPod,896,414,8.957766666666666,
3539,default,block2,julian,ai,0.68,7063,be_right,53,be_right,C,[],27,Yes,,Female,English ,Safari,iPhone/iPod,896,414,8.957766666666666,
3539,default,block2,josie,ai,0.72,3333,be_annoyed,54,be_annoyed,C,[],27,Yes,,Female,English ,Safari,iPhone/iPod,896,414,8.957766666666666,
3539,default,block2,pizza,ai,0.04,4440,MC,55,MC,MC,[],27,Yes,,Female,English ,Safari,iPhone/iPod,896,414,8.957766666666666,
3539,default,block2,frank,ai,0.62,4699,inform,56,inform,C,[],27,Yes,,Female,English ,Safari,iPhone/iPod,896,414,8.957766666666666,
3539,default,block2,kids,ai,0.04,4333,MC,57,MC,MC,[],27,Yes,,Female,English ,Safari,iPhone/iPod,896,414,8.957766666666666,
3541,default,block1,jackson,projective,0.1,7365,think,5,think,C,[],27,Yes,,Female,English,Chrome,Mac,900,1440,12.446116666666668,
3541,default,block1,julian,projective,0.01,18364,demonstrate,6,demonstrate,C,[],27,Yes,,Female,English,Chrome,Mac,900,1440,12.446116666666668,
3541,default,block1,tony,projective,0,6986,announce,7,announce,C,[],27,Yes,,Female,English,Chrome,Mac,900,1440,12.446116666666668,
3541,default,block1,josie,projective,0.03,5092,be_right,8,be_right,C,[],27,Yes,,Female,English,Chrome,Mac,900,1440,12.446116666666668,
3541,default,block1,olivia,projective,0.04,8096,see,9,see,C,[],27,Yes,,Female,English,Chrome,Mac,900,1440,12.446116666666668,
3541,default,block1,danny,projective,0.1,9073,establish,10,establish,C,[],27,Yes,,Female,English,Chrome,Mac,900,1440,12.446116666666668,
3541,default,block1,emily,projective,0.07,7405,be_annoyed,11,be_annoyed,C,[],27,Yes,,Female,English,Chrome,Mac,900,1440,12.446116666666668,
3541,default,block1,hat,projective,0.98,6392,MC,12,MC,MC,[],27,Yes,,Female,English,Chrome,Mac,900,1440,12.446116666666668,
3541,default,block1,charley,projective,0.05,5773,know,13,know,C,[],27,Yes,,Female,English,Chrome,Mac,900,1440,12.446116666666668,
3541,default,block1,frank,projective,0.89,6050,hear,14,hear,C,[],27,Yes,,Female,English,Chrome,Mac,900,1440,12.446116666666668,
3541,default,block1,kids,projective,0.99,5302,MC,15,MC,MC,[],27,Yes,,Female,English,Chrome,Mac,900,1440,12.446116666666668,
3541,default,block1,mia,projective,0.08,8133,pretend,16,pretend,C,[],27,Yes,,Female,English,Chrome,Mac,900,1440,12.446116666666668,
3541,default,block1,mary,projective,0.88,50836,confess,17,confess,C,[],27,Yes,,Female,English,Chrome,Mac,900,1440,12.446116666666668,
3541,default,block1,owen,projective,0.89,4513,inform,18,inform,C,[],27,Yes,,Female,English,Chrome,Mac,900,1440,12.446116666666668,
3541,default,block1,grace,projective,0.83,13490,reveal,19,reveal,C,[],27,Yes,,Female,English,Chrome,Mac,900,1440,12.446116666666668,
3541,default,block1,pizza,projective,0.97,4228,MC,20,MC,MC,[],27,Yes,,Female,English,Chrome,Mac,900,1440,12.446116666666668,
3541,default,block1,muffins,projective,0.99,5156,MC,21,MC,MC,[],27,Yes,,Female,English,Chrome,Mac,900,1440,12.446116666666668,
3541,default,block1,isabella,projective,0.56,3870,confirm,22,confirm,C,[],27,Yes,,Female,English,Chrome,Mac,900,1440,12.446116666666668,
3541,default,block1,jon,projective,0.71,5283,discover,23,discover,C,[],27,Yes,,Female,English,Chrome,Mac,900,1440,12.446116666666668,
3541,default,block1,ballet,projective,0.98,4244,MC,24,MC,MC,[],27,Yes,,Female,English,Chrome,Mac,900,1440,12.446116666666668,
3541,default,block1,zoe,projective,0.87,6974,acknowledge,25,acknowledge,C,[],27,Yes,,Female,English,Chrome,Mac,900,1440,12.446116666666668,
3541,default,block1,sophia,projective,0.66,4544,prove,26,prove,C,[],27,Yes,,Female,English,Chrome,Mac,900,1440,12.446116666666668,
3541,default,block1,jayden,projective,0.16,5203,suggest,27,suggest,C,[],27,Yes,,Female,English,Chrome,Mac,900,1440,12.446116666666668,
3541,default,block1,emma,projective,0.35,10905,admit,28,admit,C,[],27,Yes,,Female,English,Chrome,Mac,900,1440,12.446116666666668,
3541,default,block1,garage,projective,0.97,2854,MC,29,MC,MC,[],27,Yes,,Female,English,Chrome,Mac,900,1440,12.446116666666668,
3541,default,block1,josh,projective,0.53,3155,say,30,say,C,[],27,Yes,,Female,English,Chrome,Mac,900,1440,12.446116666666668,
3541,default,block2,josie,ai,0.81,258199,be_right,32,be_right,C,[],27,Yes,,Female,English,Chrome,Mac,900,1440,12.446116666666668,
3541,default,block2,zoe,ai,0.82,20060,acknowledge,33,acknowledge,C,[],27,Yes,,Female,English,Chrome,Mac,900,1440,12.446116666666668,
3541,default,block2,mia,ai,0.82,6210,pretend,34,pretend,C,[],27,Yes,,Female,English,Chrome,Mac,900,1440,12.446116666666668,
3541,default,block2,garage,ai,0.82,9104,MC,35,MC,MC,[],27,Yes,,Female,English,Chrome,Mac,900,1440,12.446116666666668,
3541,default,block2,julian,ai,0.75,53852,demonstrate,36,demonstrate,C,[],27,Yes,,Female,English,Chrome,Mac,900,1440,12.446116666666668,
3541,default,block2,grace,ai,0.74,3889,reveal,37,reveal,C,[],27,Yes,,Female,English,Chrome,Mac,900,1440,12.446116666666668,
3541,default,block2,owen,ai,0.89,7143,inform,38,inform,C,[],27,Yes,,Female,English,Chrome,Mac,900,1440,12.446116666666668,
3541,default,block2,sophia,ai,0.73,5057,prove,39,prove,C,[],27,Yes,,Female,English,Chrome,Mac,900,1440,12.446116666666668,
3541,default,block2,emma,ai,0.86,8183,admit,40,admit,C,[],27,Yes,,Female,English,Chrome,Mac,900,1440,12.446116666666668,
3541,default,block2,ballet,ai,0.76,9099,MC,41,MC,MC,[],27,Yes,,Female,English,Chrome,Mac,900,1440,12.446116666666668,
3541,default,block2,danny,ai,0.77,3610,establish,42,establish,C,[],27,Yes,,Female,English,Chrome,Mac,900,1440,12.446116666666668,
3541,default,block2,emily,ai,0.84,4164,be_annoyed,43,be_annoyed,C,[],27,Yes,,Female,English,Chrome,Mac,900,1440,12.446116666666668,
3541,default,block2,pizza,ai,0.77,4569,MC,44,MC,MC,[],27,Yes,,Female,English,Chrome,Mac,900,1440,12.446116666666668,
3541,default,block2,kids,ai,0.77,8716,MC,45,MC,MC,[],27,Yes,,Female,English,Chrome,Mac,900,1440,12.446116666666668,
3541,default,block2,tony,ai,0.79,11511,announce,46,announce,C,[],27,Yes,,Female,English,Chrome,Mac,900,1440,12.446116666666668,
3541,default,block2,isabella,ai,0.06,5893,confirm,47,confirm,C,[],27,Yes,,Female,English,Chrome,Mac,900,1440,12.446116666666668,
3541,default,block2,olivia,ai,0.08,5293,see,48,see,C,[],27,Yes,,Female,English,Chrome,Mac,900,1440,12.446116666666668,
3541,default,block2,hat,ai,0.81,7189,MC,49,MC,MC,[],27,Yes,,Female,English,Chrome,Mac,900,1440,12.446116666666668,
3541,default,block2,mary,ai,0.82,4106,confess,50,confess,C,[],27,Yes,,Female,English,Chrome,Mac,900,1440,12.446116666666668,
3541,default,block2,jayden,ai,0.85,5585,suggest,51,suggest,C,[],27,Yes,,Female,English,Chrome,Mac,900,1440,12.446116666666668,
3541,default,block2,jackson,ai,0.78,9191,think,52,think,C,[],27,Yes,,Female,English,Chrome,Mac,900,1440,12.446116666666668,
3541,default,block2,josh,ai,0.7,3602,say,53,say,C,[],27,Yes,,Female,English,Chrome,Mac,900,1440,12.446116666666668,
3541,default,block2,frank,ai,0.81,5236,hear,54,hear,C,[],27,Yes,,Female,English,Chrome,Mac,900,1440,12.446116666666668,
3541,default,block2,charley,ai,0.8,2293,know,55,know,C,[],27,Yes,,Female,English,Chrome,Mac,900,1440,12.446116666666668,
3541,default,block2,muffins,ai,0.8,1366,MC,56,MC,MC,[],27,Yes,,Female,English,Chrome,Mac,900,1440,12.446116666666668,
3541,default,block2,jon,ai,0.74,7443,discover,57,discover,C,[],27,Yes,,Female,English,Chrome,Mac,900,1440,12.446116666666668,
3355,default,block1,olivia,ai,0.9,24499,reveal,5,reveal,C,[],19,Yes,I found this study to be rather confusing as the grammar was off.,Female,English,Safari,iPhone/iPod,896,414,13.490016666666667,
3355,default,block1,pizza,ai,0.84,23262,MC,6,MC,MC,[],19,Yes,I found this study to be rather confusing as the grammar was off.,Female,English,Safari,iPhone/iPod,896,414,13.490016666666667,
3355,default,block1,josie,ai,0.91,19987,announce,7,announce,C,[],19,Yes,I found this study to be rather confusing as the grammar was off.,Female,English,Safari,iPhone/iPod,896,414,13.490016666666667,
3355,default,block1,emma,ai,0.05,43024,be_annoyed,8,be_annoyed,C,[],19,Yes,I found this study to be rather confusing as the grammar was off.,Female,English,Safari,iPhone/iPod,896,414,13.490016666666667,
3355,default,block1,mia,ai,0.96,18492,establish,9,establish,C,[],19,Yes,I found this study to be rather confusing as the grammar was off.,Female,English,Safari,iPhone/iPod,896,414,13.490016666666667,
3355,default,block1,hat,ai,0.5,19211,MC,10,MC,MC,[],19,Yes,I found this study to be rather confusing as the grammar was off.,Female,English,Safari,iPhone/iPod,896,414,13.490016666666667,
3355,default,block1,julian,ai,0.51,21995,know,11,know,C,[],19,Yes,I found this study to be rather confusing as the grammar was off.,Female,English,Safari,iPhone/iPod,896,414,13.490016666666667,
3355,default,block1,mary,ai,0.35,28524,be_right,12,be_right,C,[],19,Yes,I found this study to be rather confusing as the grammar was off.,Female,English,Safari,iPhone/iPod,896,414,13.490016666666667,
3355,default,block1,ballet,ai,0.49,10338,MC,13,MC,MC,[],19,Yes,I found this study to be rather confusing as the grammar was off.,Female,English,Safari,iPhone/iPod,896,414,13.490016666666667,
3355,default,block1,tony,ai,0.84,14020,acknowledge,14,acknowledge,C,[],19,Yes,I found this study to be rather confusing as the grammar was off.,Female,English,Safari,iPhone/iPod,896,414,13.490016666666667,
3355,default,block1,danny,ai,0.74,20854,suggest,15,suggest,C,[],19,Yes,I found this study to be rather confusing as the grammar was off.,Female,English,Safari,iPhone/iPod,896,414,13.490016666666667,
3355,default,block1,sophia,ai,0.64,19840,prove,16,prove,C,[],19,Yes,I found this study to be rather confusing as the grammar was off.,Female,English,Safari,iPhone/iPod,896,414,13.490016666666667,
3355,default,block1,muffins,ai,0.03,9992,MC,17,MC,MC,[],19,Yes,I found this study to be rather confusing as the grammar was off.,Female,English,Safari,iPhone/iPod,896,414,13.490016666666667,
3355,default,block1,grace,ai,0.2,41770,pretend,18,pretend,C,[],19,Yes,I found this study to be rather confusing as the grammar was off.,Female,English,Safari,iPhone/iPod,896,414,13.490016666666667,
3355,default,block1,isabella,ai,0.08,11979,confess,19,confess,C,[],19,Yes,I found this study to be rather confusing as the grammar was off.,Female,English,Safari,iPhone/iPod,896,414,13.490016666666667,
3355,default,block1,garage,ai,0.02,6976,MC,20,MC,MC,[],19,Yes,I found this study to be rather confusing as the grammar was off.,Female,English,Safari,iPhone/iPod,896,414,13.490016666666667,
3355,default,block1,emily,ai,0.63,13679,admit,21,admit,C,[],19,Yes,I found this study to be rather confusing as the grammar was off.,Female,English,Safari,iPhone/iPod,896,414,13.490016666666667,
3355,default,block1,kids,ai,0.02,7899,MC,22,MC,MC,[],19,Yes,I found this study to be rather confusing as the grammar was off.,Female,English,Safari,iPhone/iPod,896,414,13.490016666666667,
3355,default,block1,zoe,ai,0.77,15649,inform,23,inform,C,[],19,Yes,I found this study to be rather confusing as the grammar was off.,Female,English,Safari,iPhone/iPod,896,414,13.490016666666667,
3355,default,block1,jackson,ai,0.25,12970,say,24,say,C,[],19,Yes,I found this study to be rather confusing as the grammar was off.,Female,English,Safari,iPhone/iPod,896,414,13.490016666666667,
3355,default,block1,charley,ai,0.68,8307,discover,25,discover,C,[],19,Yes,I found this study to be rather confusing as the grammar was off.,Female,English,Safari,iPhone/iPod,896,414,13.490016666666667,
3355,default,block1,jayden,ai,0.05,12683,hear,26,hear,C,[],19,Yes,I found this study to be rather confusing as the grammar was off.,Female,English,Safari,iPhone/iPod,896,414,13.490016666666667,
3355,default,block1,jon,ai,0.55,13588,demonstrate,27,demonstrate,C,[],19,Yes,I found this study to be rather confusing as the grammar was off.,Female,English,Safari,iPhone/iPod,896,414,13.490016666666667,
3355,default,block1,josh,ai,0.4,13008,confirm,28,confirm,C,[],19,Yes,I found this study to be rather confusing as the grammar was off.,Female,English,Safari,iPhone/iPod,896,414,13.490016666666667,
3355,default,block1,frank,ai,0.71,12036,think,29,think,C,[],19,Yes,I found this study to be rather confusing as the grammar was off.,Female,English,Safari,iPhone/iPod,896,414,13.490016666666667,
3355,default,block1,owen,ai,0.04,10167,see,30,see,C,[],19,Yes,I found this study to be rather confusing as the grammar was off.,Female,English,Safari,iPhone/iPod,896,414,13.490016666666667,
3355,default,block2,julian,projective,0.86,22360,know,32,know,C,[],19,Yes,I found this study to be rather confusing as the grammar was off.,Female,English,Safari,iPhone/iPod,896,414,13.490016666666667,
3355,default,block2,jayden,projective,0.88,11832,hear,33,hear,C,[],19,Yes,I found this study to be rather confusing as the grammar was off.,Female,English,Safari,iPhone/iPod,896,414,13.490016666666667,
3355,default,block2,josie,projective,0.38,7390,announce,34,announce,C,[],19,Yes,I found this study to be rather confusing as the grammar was off.,Female,English,Safari,iPhone/iPod,896,414,13.490016666666667,
3355,default,block2,emma,projective,0.78,12335,be_annoyed,35,be_annoyed,C,[],19,Yes,I found this study to be rather confusing as the grammar was off.,Female,English,Safari,iPhone/iPod,896,414,13.490016666666667,
3355,default,block2,josh,projective,0.15,7883,confirm,36,confirm,C,[],19,Yes,I found this study to be rather confusing as the grammar was off.,Female,English,Safari,iPhone/iPod,896,414,13.490016666666667,
3355,default,block2,tony,projective,0.83,8682,acknowledge,37,acknowledge,C,[],19,Yes,I found this study to be rather confusing as the grammar was off.,Female,English,Safari,iPhone/iPod,896,414,13.490016666666667,
3355,default,block2,frank,projective,0.02,6222,think,38,think,C,[],19,Yes,I found this study to be rather confusing as the grammar was off.,Female,English,Safari,iPhone/iPod,896,414,13.490016666666667,
3355,default,block2,danny,projective,0,10947,suggest,39,suggest,C,[],19,Yes,I found this study to be rather confusing as the grammar was off.,Female,English,Safari,iPhone/iPod,896,414,13.490016666666667,
3355,default,block2,pizza,projective,0.94,11443,MC,40,MC,MC,[],19,Yes,I found this study to be rather confusing as the grammar was off.,Female,English,Safari,iPhone/iPod,896,414,13.490016666666667,
3355,default,block2,zoe,projective,0.78,7842,inform,41,inform,C,[],19,Yes,I found this study to be rather confusing as the grammar was off.,Female,English,Safari,iPhone/iPod,896,414,13.490016666666667,
3355,default,block2,muffins,projective,0.95,6975,MC,42,MC,MC,[],19,Yes,I found this study to be rather confusing as the grammar was off.,Female,English,Safari,iPhone/iPod,896,414,13.490016666666667,
3355,default,block2,jon,projective,0.18,5766,demonstrate,43,demonstrate,C,[],19,Yes,I found this study to be rather confusing as the grammar was off.,Female,English,Safari,iPhone/iPod,896,414,13.490016666666667,
3355,default,block2,hat,projective,0.98,5679,MC,44,MC,MC,[],19,Yes,I found this study to be rather confusing as the grammar was off.,Female,English,Safari,iPhone/iPod,896,414,13.490016666666667,
3355,default,block2,olivia,projective,0.56,7817,reveal,45,reveal,C,[],19,Yes,I found this study to be rather confusing as the grammar was off.,Female,English,Safari,iPhone/iPod,896,414,13.490016666666667,
3355,default,block2,charley,projective,0.93,6476,discover,46,discover,C,[],19,Yes,I found this study to be rather confusing as the grammar was off.,Female,English,Safari,iPhone/iPod,896,414,13.490016666666667,
3355,default,block2,owen,projective,0.12,7295,see,47,see,C,[],19,Yes,I found this study to be rather confusing as the grammar was off.,Female,English,Safari,iPhone/iPod,896,414,13.490016666666667,
3355,default,block2,emily,projective,0.63,7065,admit,48,admit,C,[],19,Yes,I found this study to be rather confusing as the grammar was off.,Female,English,Safari,iPhone/iPod,896,414,13.490016666666667,
3355,default,block2,isabella,projective,0.7,10597,confess,49,confess,C,[],19,Yes,I found this study to be rather confusing as the grammar was off.,Female,English,Safari,iPhone/iPod,896,414,13.490016666666667,
3355,default,block2,kids,projective,0.97,6796,MC,50,MC,MC,[],19,Yes,I found this study to be rather confusing as the grammar was off.,Female,English,Safari,iPhone/iPod,896,414,13.490016666666667,
3355,default,block2,mary,projective,0.34,6300,be_right,51,be_right,C,[],19,Yes,I found this study to be rather confusing as the grammar was off.,Female,English,Safari,iPhone/iPod,896,414,13.490016666666667,
3355,default,block2,mia,projective,0.37,6471,establish,52,establish,C,[],19,Yes,I found this study to be rather confusing as the grammar was off.,Female,English,Safari,iPhone/iPod,896,414,13.490016666666667,
3355,default,block2,jackson,projective,0.36,5635,say,53,say,C,[],19,Yes,I found this study to be rather confusing as the grammar was off.,Female,English,Safari,iPhone/iPod,896,414,13.490016666666667,
3355,default,block2,grace,projective,0.04,7544,pretend,54,pretend,C,[],19,Yes,I found this study to be rather confusing as the grammar was off.,Female,English,Safari,iPhone/iPod,896,414,13.490016666666667,
3355,default,block2,ballet,projective,1,5192,MC,55,MC,MC,[],19,Yes,I found this study to be rather confusing as the grammar was off.,Female,English,Safari,iPhone/iPod,896,414,13.490016666666667,
3355,default,block2,garage,projective,0.96,5205,MC,56,MC,MC,[],19,Yes,I found this study to be rather confusing as the grammar was off.,Female,English,Safari,iPhone/iPod,896,414,13.490016666666667,
3355,default,block2,sophia,projective,0.16,6590,prove,57,prove,C,[],19,Yes,I found this study to be rather confusing as the grammar was off.,Female,English,Safari,iPhone/iPod,896,414,13.490016666666667,
3364,default,block1,danny,ai,0.03,9276,suggest,5,suggest,C,[],19,Yes,,Female,English,Safari,Mac,900,1440,7.8039,
3364,default,block1,frank,ai,0.04,9602,confess,6,confess,C,[],19,Yes,,Female,English,Safari,Mac,900,1440,7.8039,
3364,default,block1,jackson,ai,0.03,6922,inform,7,inform,C,[],19,Yes,,Female,English,Safari,Mac,900,1440,7.8039,
3364,default,block1,hat,ai,0.55,7367,MC,8,MC,MC,[],19,Yes,,Female,English,Safari,Mac,900,1440,7.8039,
3364,default,block1,pizza,ai,0.54,32131,MC,9,MC,MC,[],19,Yes,,Female,English,Safari,Mac,900,1440,7.8039,
3364,default,block1,sophia,ai,0.01,5325,confirm,10,confirm,C,[],19,Yes,,Female,English,Safari,Mac,900,1440,7.8039,
3364,default,block1,grace,ai,0.05,6534,prove,11,prove,C,[],19,Yes,,Female,English,Safari,Mac,900,1440,7.8039,
3364,default,block1,isabella,ai,0.04,3777,demonstrate,12,demonstrate,C,[],19,Yes,,Female,English,Safari,Mac,900,1440,7.8039,
3364,default,block1,garage,ai,0.53,10063,MC,13,MC,MC,[],19,Yes,,Female,English,Safari,Mac,900,1440,7.8039,
3364,default,block1,mia,ai,0.04,6421,be_annoyed,14,be_annoyed,C,[],19,Yes,,Female,English,Safari,Mac,900,1440,7.8039,
3364,default,block1,owen,ai,0.04,5317,acknowledge,15,acknowledge,C,[],19,Yes,,Female,English,Safari,Mac,900,1440,7.8039,
3364,default,block1,mary,ai,0.04,4266,admit,16,admit,C,[],19,Yes,,Female,English,Safari,Mac,900,1440,7.8039,
3364,default,block1,emma,ai,0.03,6086,announce,17,announce,C,[],19,Yes,,Female,English,Safari,Mac,900,1440,7.8039,
3364,default,block1,jon,ai,0.02,14207,discover,18,discover,C,[],19,Yes,,Female,English,Safari,Mac,900,1440,7.8039,
3364,default,block1,jayden,ai,0.02,3053,think,19,think,C,[],19,Yes,,Female,English,Safari,Mac,900,1440,7.8039,
3364,default,block1,julian,ai,0.06,4573,be_right,20,be_right,C,[],19,Yes,,Female,English,Safari,Mac,900,1440,7.8039,
3364,default,block1,josh,ai,0,4612,pretend,21,pretend,C,[],19,Yes,,Female,English,Safari,Mac,900,1440,7.8039,
3364,default,block1,emily,ai,0.03,3784,hear,22,hear,C,[],19,Yes,,Female,English,Safari,Mac,900,1440,7.8039,
3364,default,block1,zoe,ai,0.04,2960,know,23,know,C,[],19,Yes,,Female,English,Safari,Mac,900,1440,7.8039,
3364,default,block1,ballet,ai,0.6,7551,MC,24,MC,MC,[],19,Yes,,Female,English,Safari,Mac,900,1440,7.8039,
3364,default,block1,tony,ai,0.02,5539,see,25,see,C,[],19,Yes,,Female,English,Safari,Mac,900,1440,7.8039,
3364,default,block1,muffins,ai,0.66,4110,MC,26,MC,MC,[],19,Yes,,Female,English,Safari,Mac,900,1440,7.8039,
3364,default,block1,charley,ai,0.01,4047,establish,27,establish,C,[],19,Yes,,Female,English,Safari,Mac,900,1440,7.8039,
3364,default,block1,josie,ai,0.03,4891,say,28,say,C,[],19,Yes,,Female,English,Safari,Mac,900,1440,7.8039,
3364,default,block1,kids,ai,0.67,4339,MC,29,MC,MC,[],19,Yes,,Female,English,Safari,Mac,900,1440,7.8039,
3364,default,block1,olivia,ai,0.04,4602,reveal,30,reveal,C,[],19,Yes,,Female,English,Safari,Mac,900,1440,7.8039,
3364,default,block2,pizza,projective,0.94,27047,MC,32,MC,MC,[],19,Yes,,Female,English,Safari,Mac,900,1440,7.8039,
3364,default,block2,ballet,projective,0.96,4018,MC,33,MC,MC,[],19,Yes,,Female,English,Safari,Mac,900,1440,7.8039,
3364,default,block2,kids,projective,0.97,3538,MC,34,MC,MC,[],19,Yes,,Female,English,Safari,Mac,900,1440,7.8039,
3364,default,block2,emily,projective,0.98,7445,hear,35,hear,C,[],19,Yes,,Female,English,Safari,Mac,900,1440,7.8039,
3364,default,block2,emma,projective,0.96,8467,announce,36,announce,C,[],19,Yes,,Female,English,Safari,Mac,900,1440,7.8039,
3364,default,block2,owen,projective,0.86,3580,acknowledge,37,acknowledge,C,[],19,Yes,,Female,English,Safari,Mac,900,1440,7.8039,
3364,default,block2,frank,projective,0.91,7186,confess,38,confess,C,[],19,Yes,,Female,English,Safari,Mac,900,1440,7.8039,
3364,default,block2,josh,projective,0.03,12268,pretend,39,pretend,C,[],19,Yes,,Female,English,Safari,Mac,900,1440,7.8039,
3364,default,block2,isabella,projective,0.08,7483,demonstrate,40,demonstrate,C,[],19,Yes,,Female,English,Safari,Mac,900,1440,7.8039,
3364,default,block2,charley,projective,0.58,5544,establish,41,establish,C,[],19,Yes,,Female,English,Safari,Mac,900,1440,7.8039,
3364,default,block2,jayden,projective,0.04,4623,think,42,think,C,[],19,Yes,,Female,English,Safari,Mac,900,1440,7.8039,
3364,default,block2,olivia,projective,0.96,3441,reveal,43,reveal,C,[],19,Yes,,Female,English,Safari,Mac,900,1440,7.8039,
3364,default,block2,danny,projective,0.02,2872,suggest,44,suggest,C,[],19,Yes,,Female,English,Safari,Mac,900,1440,7.8039,
3364,default,block2,mia,projective,0.89,4612,be_annoyed,45,be_annoyed,C,[],19,Yes,,Female,English,Safari,Mac,900,1440,7.8039,
3364,default,block2,josie,projective,0.23,9438,say,46,say,C,[],19,Yes,,Female,English,Safari,Mac,900,1440,7.8039,
3364,default,block2,jon,projective,0.92,5507,discover,47,discover,C,[],19,Yes,,Female,English,Safari,Mac,900,1440,7.8039,
3364,default,block2,grace,projective,0.51,9240,prove,48,prove,C,[],19,Yes,,Female,English,Safari,Mac,900,1440,7.8039,
3364,default,block2,tony,projective,0.8,15121,see,49,see,C,[],19,Yes,,Female,English,Safari,Mac,900,1440,7.8039,
3364,default,block2,muffins,projective,0.81,9199,MC,50,MC,MC,[],19,Yes,,Female,English,Safari,Mac,900,1440,7.8039,
3364,default,block2,zoe,projective,0.85,4816,know,51,know,C,[],19,Yes,,Female,English,Safari,Mac,900,1440,7.8039,
3364,default,block2,garage,projective,0.98,21564,MC,52,MC,MC,[],19,Yes,,Female,English,Safari,Mac,900,1440,7.8039,
3364,default,block2,jackson,projective,0.91,3976,inform,53,inform,C,[],19,Yes,,Female,English,Safari,Mac,900,1440,7.8039,
3364,default,block2,julian,projective,0.09,5632,be_right,54,be_right,C,[],19,Yes,,Female,English,Safari,Mac,900,1440,7.8039,
3364,default,block2,hat,projective,0.95,3117,MC,55,MC,MC,[],19,Yes,,Female,English,Safari,Mac,900,1440,7.8039,
3364,default,block2,sophia,projective,0.17,7306,confirm,56,confirm,C,[],19,Yes,,Female,English,Safari,Mac,900,1440,7.8039,
3364,default,block2,mary,projective,0.87,4596,admit,57,admit,C,[],19,Yes,,Female,English,Safari,Mac,900,1440,7.8039,
3456,default,block1,ballet,ai,0.08,29378,MC,5,MC,MC,[],24,Yes,,Female,English,Chrome,Windows,1440,2560,12.683216666666668,
3456,default,block1,josie,ai,0.83,10256,demonstrate,6,demonstrate,C,[],24,Yes,,Female,English,Chrome,Windows,1440,2560,12.683216666666668,
3456,default,block1,kids,ai,0.08,6158,MC,7,MC,MC,[],24,Yes,,Female,English,Chrome,Windows,1440,2560,12.683216666666668,
3456,default,block1,emily,ai,0.85,13085,discover,8,discover,C,[],24,Yes,,Female,English,Chrome,Windows,1440,2560,12.683216666666668,
3456,default,block1,jayden,ai,0.93,12422,pretend,9,pretend,C,[],24,Yes,,Female,English,Chrome,Windows,1440,2560,12.683216666666668,
3456,default,block1,zoe,ai,0.97,6204,establish,10,establish,C,[],24,Yes,,Female,English,Chrome,Windows,1440,2560,12.683216666666668,
3456,default,block1,pizza,ai,0.09,61237,MC,11,MC,MC,[],24,Yes,,Female,English,Chrome,Windows,1440,2560,12.683216666666668,
3456,default,block1,jackson,ai,1,6051,acknowledge,12,acknowledge,C,[],24,Yes,,Female,English,Chrome,Windows,1440,2560,12.683216666666668,
3456,default,block1,jon,ai,0.97,5304,announce,13,announce,C,[],24,Yes,,Female,English,Chrome,Windows,1440,2560,12.683216666666668,
3456,default,block1,muffins,ai,0.22,5797,MC,14,MC,MC,[],24,Yes,,Female,English,Chrome,Windows,1440,2560,12.683216666666668,
3456,default,block1,mia,ai,0.97,11167,see,15,see,C,[],24,Yes,,Female,English,Chrome,Windows,1440,2560,12.683216666666668,
3456,default,block1,frank,ai,0.94,8234,think,16,think,C,[],24,Yes,,Female,English,Chrome,Windows,1440,2560,12.683216666666668,
3456,default,block1,owen,ai,0.92,10714,prove,17,prove,C,[],24,Yes,,Female,English,Chrome,Windows,1440,2560,12.683216666666668,
3456,default,block1,grace,ai,0.89,4445,hear,18,hear,C,[],24,Yes,,Female,English,Chrome,Windows,1440,2560,12.683216666666668,
3456,default,block1,julian,ai,0.87,3885,know,19,know,C,[],24,Yes,,Female,English,Chrome,Windows,1440,2560,12.683216666666668,
3456,default,block1,garage,ai,0.24,6927,MC,20,MC,MC,[],24,Yes,,Female,English,Chrome,Windows,1440,2560,12.683216666666668,
3456,default,block1,danny,ai,0.91,66784,reveal,21,reveal,C,[],24,Yes,,Female,English,Chrome,Windows,1440,2560,12.683216666666668,
3456,default,block1,sophia,ai,0.94,40596,confirm,22,confirm,C,[],24,Yes,,Female,English,Chrome,Windows,1440,2560,12.683216666666668,
3456,default,block1,tony,ai,0.96,18119,be_right,23,be_right,C,[],24,Yes,,Female,English,Chrome,Windows,1440,2560,12.683216666666668,
3456,default,block1,isabella,ai,0.94,6014,inform,24,inform,C,[],24,Yes,,Female,English,Chrome,Windows,1440,2560,12.683216666666668,
3456,default,block1,olivia,ai,1,152419,admit,25,admit,C,[],24,Yes,,Female,English,Chrome,Windows,1440,2560,12.683216666666668,
3456,default,block1,mary,ai,0.96,17127,say,26,say,C,[],24,Yes,,Female,English,Chrome,Windows,1440,2560,12.683216666666668,
3456,default,block1,hat,ai,0.06,3619,MC,27,MC,MC,[],24,Yes,,Female,English,Chrome,Windows,1440,2560,12.683216666666668,
3456,default,block1,josh,ai,0.94,8123,suggest,28,suggest,C,[],24,Yes,,Female,English,Chrome,Windows,1440,2560,12.683216666666668,
3456,default,block1,emma,ai,0.98,4897,confess,29,confess,C,[],24,Yes,,Female,English,Chrome,Windows,1440,2560,12.683216666666668,
3456,default,block1,charley,ai,0.99,6139,be_annoyed,30,be_annoyed,C,[],24,Yes,,Female,English,Chrome,Windows,1440,2560,12.683216666666668,
3456,default,block2,isabella,projective,0.77,14414,inform,32,inform,C,[],24,Yes,,Female,English,Chrome,Windows,1440,2560,12.683216666666668,
3456,default,block2,sophia,projective,0.42,4807,confirm,33,confirm,C,[],24,Yes,,Female,English,Chrome,Windows,1440,2560,12.683216666666668,
3456,default,block2,pizza,projective,0.98,3953,MC,34,MC,MC,[],24,Yes,,Female,English,Chrome,Windows,1440,2560,12.683216666666668,
3456,default,block2,mary,projective,0.49,4427,say,35,say,C,[],24,Yes,,Female,English,Chrome,Windows,1440,2560,12.683216666666668,
3456,default,block2,mia,projective,0.96,3817,see,36,see,C,[],24,Yes,,Female,English,Chrome,Windows,1440,2560,12.683216666666668,
3456,default,block2,jackson,projective,0.81,3764,acknowledge,37,acknowledge,C,[],24,Yes,,Female,English,Chrome,Windows,1440,2560,12.683216666666668,
3456,default,block2,josie,projective,0.38,38282,demonstrate,38,demonstrate,C,[],24,Yes,,Female,English,Chrome,Windows,1440,2560,12.683216666666668,
3456,default,block2,tony,projective,0.11,3746,be_right,39,be_right,C,[],24,Yes,,Female,English,Chrome,Windows,1440,2560,12.683216666666668,
3456,default,block2,charley,projective,0.84,4705,be_annoyed,40,be_annoyed,C,[],24,Yes,,Female,English,Chrome,Windows,1440,2560,12.683216666666668,
3456,default,block2,grace,projective,0.93,2663,hear,41,hear,C,[],24,Yes,,Female,English,Chrome,Windows,1440,2560,12.683216666666668,
3456,default,block2,frank,projective,0.19,2621,think,42,think,C,[],24,Yes,,Female,English,Chrome,Windows,1440,2560,12.683216666666668,
3456,default,block2,jayden,projective,0.02,4190,pretend,43,pretend,C,[],24,Yes,,Female,English,Chrome,Windows,1440,2560,12.683216666666668,
3456,default,block2,danny,projective,1,4437,reveal,44,reveal,C,[],24,Yes,,Female,English,Chrome,Windows,1440,2560,12.683216666666668,
3456,default,block2,owen,projective,0.24,4999,prove,45,prove,C,[],24,Yes,,Female,English,Chrome,Windows,1440,2560,12.683216666666668,
3456,default,block2,ballet,projective,0.99,4112,MC,46,MC,MC,[],24,Yes,,Female,English,Chrome,Windows,1440,2560,12.683216666666668,
3456,default,block2,muffins,projective,1,2988,MC,47,MC,MC,[],24,Yes,,Female,English,Chrome,Windows,1440,2560,12.683216666666668,
3456,default,block2,hat,projective,1,3738,MC,48,MC,MC,[],24,Yes,,Female,English,Chrome,Windows,1440,2560,12.683216666666668,
3456,default,block2,garage,projective,0.96,2703,MC,49,MC,MC,[],24,Yes,,Female,English,Chrome,Windows,1440,2560,12.683216666666668,
3456,default,block2,josh,projective,0.27,4473,suggest,50,suggest,C,[],24,Yes,,Female,English,Chrome,Windows,1440,2560,12.683216666666668,
3456,default,block2,jon,projective,0.18,4464,announce,51,announce,C,[],24,Yes,,Female,English,Chrome,Windows,1440,2560,12.683216666666668,
3456,default,block2,kids,projective,0.95,3807,MC,52,MC,MC,[],24,Yes,,Female,English,Chrome,Windows,1440,2560,12.683216666666668,
3456,default,block2,emily,projective,0.89,4596,discover,53,discover,C,[],24,Yes,,Female,English,Chrome,Windows,1440,2560,12.683216666666668,
3456,default,block2,emma,projective,0.33,6257,confess,54,confess,C,[],24,Yes,,Female,English,Chrome,Windows,1440,2560,12.683216666666668,
3456,default,block2,julian,projective,0.88,3883,know,55,know,C,[],24,Yes,,Female,English,Chrome,Windows,1440,2560,12.683216666666668,
3456,default,block2,olivia,projective,0.7,4393,admit,56,admit,C,[],24,Yes,,Female,English,Chrome,Windows,1440,2560,12.683216666666668,
3456,default,block2,zoe,projective,0.3,2378,establish,57,establish,C,[],24,Yes,,Female,English,Chrome,Windows,1440,2560,12.683216666666668,
3393,default,block1,muffins,ai,0.83,66279,MC,5,MC,MC,[],28,Yes,,Male,English,Chrome,Windows,720,1280,27.223916666666668,
3393,default,block1,jackson,ai,0.82,59886,announce,6,announce,C,[],28,Yes,,Male,English,Chrome,Windows,720,1280,27.223916666666668,
3393,default,block1,pizza,ai,0.47,25440,MC,7,MC,MC,[],28,Yes,,Male,English,Chrome,Windows,720,1280,27.223916666666668,
3393,default,block1,mary,ai,0.67,19407,pretend,8,pretend,C,[],28,Yes,,Male,English,Chrome,Windows,720,1280,27.223916666666668,
3393,default,block1,owen,ai,0.51,101260,be_right,9,be_right,C,[],28,Yes,,Male,English,Chrome,Windows,720,1280,27.223916666666668,
3393,default,block1,danny,ai,0.64,24312,discover,10,discover,C,[],28,Yes,,Male,English,Chrome,Windows,720,1280,27.223916666666668,
3393,default,block1,julian,ai,0.53,19425,know,11,know,C,[],28,Yes,,Male,English,Chrome,Windows,720,1280,27.223916666666668,
3393,default,block1,isabella,ai,0.43,26230,confirm,12,confirm,C,[],28,Yes,,Male,English,Chrome,Windows,720,1280,27.223916666666668,
3393,default,block1,hat,ai,0.31,13093,MC,13,MC,MC,[],28,Yes,,Male,English,Chrome,Windows,720,1280,27.223916666666668,
3393,default,block1,charley,ai,0.53,20203,reveal,14,reveal,C,[],28,Yes,,Male,English,Chrome,Windows,720,1280,27.223916666666668,
3393,default,block1,jayden,ai,0.51,62099,demonstrate,15,demonstrate,C,[],28,Yes,,Male,English,Chrome,Windows,720,1280,27.223916666666668,
3393,default,block1,garage,ai,0.08,33546,MC,16,MC,MC,[],28,Yes,,Male,English,Chrome,Windows,720,1280,27.223916666666668,
3393,default,block1,emma,ai,0.21,12596,establish,17,establish,C,[],28,Yes,,Male,English,Chrome,Windows,720,1280,27.223916666666668,
3393,default,block1,tony,ai,0.2,16153,see,18,see,C,[],28,Yes,,Male,English,Chrome,Windows,720,1280,27.223916666666668,
3393,default,block1,emily,ai,0.34,90938,say,19,say,C,[],28,Yes,,Male,English,Chrome,Windows,720,1280,27.223916666666668,
3393,default,block1,jon,ai,0.24,9019,hear,20,hear,C,[],28,Yes,,Male,English,Chrome,Windows,720,1280,27.223916666666668,
3393,default,block1,sophia,ai,0.28,9430,acknowledge,21,acknowledge,C,[],28,Yes,,Male,English,Chrome,Windows,720,1280,27.223916666666668,
3393,default,block1,josie,ai,0.39,34395,inform,22,inform,C,[],28,Yes,,Male,English,Chrome,Windows,720,1280,27.223916666666668,
3393,default,block1,zoe,ai,0.5,17095,confess,23,confess,C,[],28,Yes,,Male,English,Chrome,Windows,720,1280,27.223916666666668,
3393,default,block1,mia,ai,0.33,21324,suggest,24,suggest,C,[],28,Yes,,Male,English,Chrome,Windows,720,1280,27.223916666666668,
3393,default,block1,frank,ai,0.16,7065,prove,25,prove,C,[],28,Yes,,Male,English,Chrome,Windows,720,1280,27.223916666666668,
3393,default,block1,kids,ai,0.11,19291,MC,26,MC,MC,[],28,Yes,,Male,English,Chrome,Windows,720,1280,27.223916666666668,
3393,default,block1,josh,ai,0.47,26769,admit,27,admit,C,[],28,Yes,,Male,English,Chrome,Windows,720,1280,27.223916666666668,
3393,default,block1,grace,ai,0.5,34349,be_annoyed,28,be_annoyed,C,[],28,Yes,,Male,English,Chrome,Windows,720,1280,27.223916666666668,
3393,default,block1,olivia,ai,0.11,30384,think,29,think,C,[],28,Yes,,Male,English,Chrome,Windows,720,1280,27.223916666666668,
3393,default,block1,ballet,ai,0.12,17982,MC,30,MC,MC,[],28,Yes,,Male,English,Chrome,Windows,720,1280,27.223916666666668,
3393,default,block2,charley,projective,1,41824,reveal,32,reveal,C,[],28,Yes,,Male,English,Chrome,Windows,720,1280,27.223916666666668,
3393,default,block2,olivia,projective,0.52,19982,think,33,think,C,[],28,Yes,,Male,English,Chrome,Windows,720,1280,27.223916666666668,
3393,default,block2,garage,projective,1,64935,MC,34,MC,MC,[],28,Yes,,Male,English,Chrome,Windows,720,1280,27.223916666666668,
3393,default,block2,isabella,projective,0.12,56186,confirm,35,confirm,C,[],28,Yes,,Male,English,Chrome,Windows,720,1280,27.223916666666668,
3393,default,block2,jayden,projective,0.55,9444,demonstrate,36,demonstrate,C,[],28,Yes,,Male,English,Chrome,Windows,720,1280,27.223916666666668,
3393,default,block2,mary,projective,0.21,41059,pretend,37,pretend,C,[],28,Yes,,Male,English,Chrome,Windows,720,1280,27.223916666666668,
3393,default,block2,muffins,projective,0.95,27903,MC,38,MC,MC,[],28,Yes,,Male,English,Chrome,Windows,720,1280,27.223916666666668,
3393,default,block2,hat,projective,0.94,10566,MC,39,MC,MC,[],28,Yes,,Male,English,Chrome,Windows,720,1280,27.223916666666668,
3393,default,block2,grace,projective,0.63,39924,be_annoyed,40,be_annoyed,C,[],28,Yes,,Male,English,Chrome,Windows,720,1280,27.223916666666668,
3393,default,block2,josie,projective,0.79,23810,inform,41,inform,C,[],28,Yes,,Male,English,Chrome,Windows,720,1280,27.223916666666668,
3393,default,block2,jon,projective,0.46,16470,hear,42,hear,C,[],28,Yes,,Male,English,Chrome,Windows,720,1280,27.223916666666668,
3393,default,block2,frank,projective,0.41,12919,prove,43,prove,C,[],28,Yes,,Male,English,Chrome,Windows,720,1280,27.223916666666668,
3393,default,block2,emily,projective,0.94,72816,say,44,say,C,[],28,Yes,,Male,English,Chrome,Windows,720,1280,27.223916666666668,
3393,default,block2,sophia,projective,0.67,9499,acknowledge,45,acknowledge,C,[],28,Yes,,Male,English,Chrome,Windows,720,1280,27.223916666666668,
3393,default,block2,kids,projective,0.94,11497,MC,46,MC,MC,[],28,Yes,,Male,English,Chrome,Windows,720,1280,27.223916666666668,
3393,default,block2,owen,projective,0.46,39468,be_right,47,be_right,C,[],28,Yes,,Male,English,Chrome,Windows,720,1280,27.223916666666668,
3393,default,block2,jackson,projective,0.51,21472,announce,48,announce,C,[],28,Yes,,Male,English,Chrome,Windows,720,1280,27.223916666666668,
3393,default,block2,zoe,projective,0.88,11185,confess,49,confess,C,[],28,Yes,,Male,English,Chrome,Windows,720,1280,27.223916666666668,
3393,default,block2,ballet,projective,0.92,13498,MC,50,MC,MC,[],28,Yes,,Male,English,Chrome,Windows,720,1280,27.223916666666668,
3393,default,block2,julian,projective,0.87,39474,know,51,know,C,[],28,Yes,,Male,English,Chrome,Windows,720,1280,27.223916666666668,
3393,default,block2,mia,projective,0.36,41672,suggest,52,suggest,C,[],28,Yes,,Male,English,Chrome,Windows,720,1280,27.223916666666668,
3393,default,block2,danny,projective,0.78,13106,discover,53,discover,C,[],28,Yes,,Male,English,Chrome,Windows,720,1280,27.223916666666668,
3393,default,block2,pizza,projective,0.92,10390,MC,54,MC,MC,[],28,Yes,,Male,English,Chrome,Windows,720,1280,27.223916666666668,
3393,default,block2,emma,projective,0.63,11331,establish,55,establish,C,[],28,Yes,,Male,English,Chrome,Windows,720,1280,27.223916666666668,
3393,default,block2,tony,projective,0.57,15624,see,56,see,C,[],28,Yes,,Male,English,Chrome,Windows,720,1280,27.223916666666668,
3393,default,block2,josh,projective,0.77,13278,admit,57,admit,C,[],28,Yes,,Male,English,Chrome,Windows,720,1280,27.223916666666668,
3535,default,block1,grace,projective,0,117605,prove,5,prove,C,[],22,Yes,,Female,English,Chrome,Mac,900,1440,18.291683333333335,
3535,default,block1,owen,projective,1,17536,inform,6,inform,C,[],22,Yes,,Female,English,Chrome,Mac,900,1440,18.291683333333335,
3535,default,block1,garage,projective,0.73,10724,MC,7,MC,MC,[],22,Yes,,Female,English,Chrome,Mac,900,1440,18.291683333333335,
3535,default,block1,hat,projective,0.81,5734,MC,8,MC,MC,[],22,Yes,,Female,English,Chrome,Mac,900,1440,18.291683333333335,
3535,default,block1,kids,projective,0.63,3591,MC,9,MC,MC,[],22,Yes,,Female,English,Chrome,Mac,900,1440,18.291683333333335,
3535,default,block1,emma,projective,0.7,2887,say,10,say,C,[],22,Yes,,Female,English,Chrome,Mac,900,1440,18.291683333333335,
3535,default,block1,josie,projective,0.83,3770,know,11,know,C,[],22,Yes,,Female,English,Chrome,Mac,900,1440,18.291683333333335,
3535,default,block1,sophia,projective,0.93,6286,reveal,12,reveal,C,[],22,Yes,,Female,English,Chrome,Mac,900,1440,18.291683333333335,
3535,default,block1,jon,projective,0.22,6398,hear,13,hear,C,[],22,Yes,,Female,English,Chrome,Mac,900,1440,18.291683333333335,
3535,default,block1,charley,projective,0.78,4272,admit,14,admit,C,[],22,Yes,,Female,English,Chrome,Mac,900,1440,18.291683333333335,
3535,default,block1,tony,projective,0.72,3000,confirm,15,confirm,C,[],22,Yes,,Female,English,Chrome,Mac,900,1440,18.291683333333335,
3535,default,block1,olivia,projective,0.81,2799,be_right,16,be_right,C,[],22,Yes,,Female,English,Chrome,Mac,900,1440,18.291683333333335,
3535,default,block1,pizza,projective,0.99,5971,MC,17,MC,MC,[],22,Yes,,Female,English,Chrome,Mac,900,1440,18.291683333333335,
3535,default,block1,mary,projective,0.93,7902,announce,18,announce,C,[],22,Yes,,Female,English,Chrome,Mac,900,1440,18.291683333333335,
3535,default,block1,jackson,projective,0.81,2563,suggest,19,suggest,C,[],22,Yes,,Female,English,Chrome,Mac,900,1440,18.291683333333335,
3535,default,block1,isabella,projective,0.86,3074,pretend,20,pretend,C,[],22,Yes,,Female,English,Chrome,Mac,900,1440,18.291683333333335,
3535,default,block1,danny,projective,0.87,1893,establish,21,establish,C,[],22,Yes,,Female,English,Chrome,Mac,900,1440,18.291683333333335,
3535,default,block1,frank,projective,0.99,7468,confess,22,confess,C,[],22,Yes,,Female,English,Chrome,Mac,900,1440,18.291683333333335,
3535,default,block1,julian,projective,0.96,3785,discover,23,discover,C,[],22,Yes,,Female,English,Chrome,Mac,900,1440,18.291683333333335,
3535,default,block1,ballet,projective,0.9,2322,MC,24,MC,MC,[],22,Yes,,Female,English,Chrome,Mac,900,1440,18.291683333333335,
3535,default,block1,jayden,projective,0.12,8257,think,25,think,C,[],22,Yes,,Female,English,Chrome,Mac,900,1440,18.291683333333335,
3535,default,block1,josh,projective,0.49,13125,be_annoyed,26,be_annoyed,C,[],22,Yes,,Female,English,Chrome,Mac,900,1440,18.291683333333335,
3535,default,block1,mia,projective,0.66,1876,demonstrate,27,demonstrate,C,[],22,Yes,,Female,English,Chrome,Mac,900,1440,18.291683333333335,
3535,default,block1,zoe,projective,0.53,9010,acknowledge,28,acknowledge,C,[],22,Yes,,Female,English,Chrome,Mac,900,1440,18.291683333333335,
3535,default,block1,emily,projective,0.31,9970,see,29,see,C,[],22,Yes,,Female,English,Chrome,Mac,900,1440,18.291683333333335,
3535,default,block1,muffins,projective,0.84,18412,MC,30,MC,MC,[],22,Yes,,Female,English,Chrome,Mac,900,1440,18.291683333333335,
3535,default,block2,frank,ai,0.5,14473,confess,32,confess,C,[],22,Yes,,Female,English,Chrome,Mac,900,1440,18.291683333333335,
3535,default,block2,josie,ai,0.49,3041,know,33,know,C,[],22,Yes,,Female,English,Chrome,Mac,900,1440,18.291683333333335,
3535,default,block2,owen,ai,0.5,3195,inform,34,inform,C,[],22,Yes,,Female,English,Chrome,Mac,900,1440,18.291683333333335,
3535,default,block2,kids,ai,0.49,3551,MC,35,MC,MC,[],22,Yes,,Female,English,Chrome,Mac,900,1440,18.291683333333335,
3535,default,block2,emma,ai,0.49,3754,say,36,say,C,[],22,Yes,,Female,English,Chrome,Mac,900,1440,18.291683333333335,
3535,default,block2,jayden,ai,0.49,9301,think,37,think,C,[],22,Yes,,Female,English,Chrome,Mac,900,1440,18.291683333333335,
3535,default,block2,mary,ai,0.49,22659,announce,38,announce,C,[],22,Yes,,Female,English,Chrome,Mac,900,1440,18.291683333333335,
3535,default,block2,charley,ai,0.5,1156,admit,39,admit,C,[],22,Yes,,Female,English,Chrome,Mac,900,1440,18.291683333333335,
3535,default,block2,mia,ai,0.5,4562,demonstrate,40,demonstrate,C,[],22,Yes,,Female,English,Chrome,Mac,900,1440,18.291683333333335,
3535,default,block2,jon,ai,0.49,1788,hear,41,hear,C,[],22,Yes,,Female,English,Chrome,Mac,900,1440,18.291683333333335,
3535,default,block2,isabella,ai,0.48,2701,pretend,42,pretend,C,[],22,Yes,,Female,English,Chrome,Mac,900,1440,18.291683333333335,
3535,default,block2,sophia,ai,0.49,3519,reveal,43,reveal,C,[],22,Yes,,Female,English,Chrome,Mac,900,1440,18.291683333333335,
3535,default,block2,grace,ai,0.48,2128,prove,44,prove,C,[],22,Yes,,Female,English,Chrome,Mac,900,1440,18.291683333333335,
3535,default,block2,julian,ai,0.49,1973,discover,45,discover,C,[],22,Yes,,Female,English,Chrome,Mac,900,1440,18.291683333333335,
3535,default,block2,josh,ai,0.49,2314,be_annoyed,46,be_annoyed,C,[],22,Yes,,Female,English,Chrome,Mac,900,1440,18.291683333333335,
3535,default,block2,jackson,ai,0.48,2523,suggest,47,suggest,C,[],22,Yes,,Female,English,Chrome,Mac,900,1440,18.291683333333335,
3535,default,block2,pizza,ai,0.49,1804,MC,48,MC,MC,[],22,Yes,,Female,English,Chrome,Mac,900,1440,18.291683333333335,
3535,default,block2,garage,ai,0.49,2111,MC,49,MC,MC,[],22,Yes,,Female,English,Chrome,Mac,900,1440,18.291683333333335,
3535,default,block2,ballet,ai,0.48,1852,MC,50,MC,MC,[],22,Yes,,Female,English,Chrome,Mac,900,1440,18.291683333333335,
3535,default,block2,muffins,ai,0.5,2088,MC,51,MC,MC,[],22,Yes,,Female,English,Chrome,Mac,900,1440,18.291683333333335,
3535,default,block2,zoe,ai,0.49,2062,acknowledge,52,acknowledge,C,[],22,Yes,,Female,English,Chrome,Mac,900,1440,18.291683333333335,
3535,default,block2,hat,ai,0.5,3074,MC,53,MC,MC,[],22,Yes,,Female,English,Chrome,Mac,900,1440,18.291683333333335,
3535,default,block2,olivia,ai,0.49,2734,be_right,54,be_right,C,[],22,Yes,,Female,English,Chrome,Mac,900,1440,18.291683333333335,
3535,default,block2,emily,ai,0.5,2394,see,55,see,C,[],22,Yes,,Female,English,Chrome,Mac,900,1440,18.291683333333335,
3535,default,block2,tony,ai,0.49,2597,confirm,56,confirm,C,[],22,Yes,,Female,English,Chrome,Mac,900,1440,18.291683333333335,
3535,default,block2,danny,ai,0.49,3511,establish,57,establish,C,[],22,Yes,,Female,English,Chrome,Mac,900,1440,18.291683333333335,
3530,default,block1,emma,ai,0.92,25323,confess,5,confess,C,[],24,Yes,,Female,English,Chrome,Mac,900,1440,10.546333333333331,
3530,default,block1,hat,ai,0.08,7599,MC,6,MC,MC,[],24,Yes,,Female,English,Chrome,Mac,900,1440,10.546333333333331,
3530,default,block1,emily,ai,0.9,8400,prove,7,prove,C,[],24,Yes,,Female,English,Chrome,Mac,900,1440,10.546333333333331,
3530,default,block1,danny,ai,0.85,24201,hear,8,hear,C,[],24,Yes,,Female,English,Chrome,Mac,900,1440,10.546333333333331,
3530,default,block1,josh,ai,0.77,11514,establish,9,establish,C,[],24,Yes,,Female,English,Chrome,Mac,900,1440,10.546333333333331,
3530,default,block1,jackson,ai,0.86,9753,know,10,know,C,[],24,Yes,,Female,English,Chrome,Mac,900,1440,10.546333333333331,
3530,default,block1,isabella,ai,0.88,10614,announce,11,announce,C,[],24,Yes,,Female,English,Chrome,Mac,900,1440,10.546333333333331,
3530,default,block1,owen,ai,0.82,9755,reveal,12,reveal,C,[],24,Yes,,Female,English,Chrome,Mac,900,1440,10.546333333333331,
3530,default,block1,tony,ai,0.84,6551,discover,13,discover,C,[],24,Yes,,Female,English,Chrome,Mac,900,1440,10.546333333333331,
3530,default,block1,muffins,ai,0.84,12400,MC,14,MC,MC,[],24,Yes,,Female,English,Chrome,Mac,900,1440,10.546333333333331,
3530,default,block1,garage,ai,0.86,11920,MC,15,MC,MC,[],24,Yes,,Female,English,Chrome,Mac,900,1440,10.546333333333331,
3530,default,block1,grace,ai,0.87,19495,think,16,think,C,[],24,Yes,,Female,English,Chrome,Mac,900,1440,10.546333333333331,
3530,default,block1,zoe,ai,0.91,13029,be_right,17,be_right,C,[],24,Yes,,Female,English,Chrome,Mac,900,1440,10.546333333333331,
3530,default,block1,kids,ai,0.84,5702,MC,18,MC,MC,[],24,Yes,,Female,English,Chrome,Mac,900,1440,10.546333333333331,
3530,default,block1,jayden,ai,0.82,44110,confirm,19,confirm,C,[],24,Yes,,Female,English,Chrome,Mac,900,1440,10.546333333333331,
3530,default,block1,josie,ai,0.87,13158,be_annoyed,20,be_annoyed,C,[],24,Yes,,Female,English,Chrome,Mac,900,1440,10.546333333333331,
3530,default,block1,ballet,ai,0.93,6820,MC,21,MC,MC,[],24,Yes,,Female,English,Chrome,Mac,900,1440,10.546333333333331,
3530,default,block1,jon,ai,0.92,25035,pretend,22,pretend,C,[],24,Yes,,Female,English,Chrome,Mac,900,1440,10.546333333333331,
3530,default,block1,charley,ai,0.9,7701,see,23,see,C,[],24,Yes,,Female,English,Chrome,Mac,900,1440,10.546333333333331,
3530,default,block1,julian,ai,0.75,9555,acknowledge,24,acknowledge,C,[],24,Yes,,Female,English,Chrome,Mac,900,1440,10.546333333333331,
3530,default,block1,frank,ai,0.31,6129,demonstrate,25,demonstrate,C,[],24,Yes,,Female,English,Chrome,Mac,900,1440,10.546333333333331,
3530,default,block1,pizza,ai,0.75,7276,MC,26,MC,MC,[],24,Yes,,Female,English,Chrome,Mac,900,1440,10.546333333333331,
3530,default,block1,mia,ai,0.7,38861,inform,27,inform,C,[],24,Yes,,Female,English,Chrome,Mac,900,1440,10.546333333333331,
