workerid,proliferate.condition.x,block,content,question_type,response,rt,short_trigger,slide_number_in_experiment,trigger,trigger_class,error.x,proliferate.condition.y,age,american,comments,gender,language,error.y,trial
129,default,block1,ballet,projective,0.95,7589,MC,5,MC,MC,NA,default,24,Yes,NA,Female,English,NA,1
129,default,block1,emily,projective,0.07,8934,confess,6,confess,C,NA,default,24,Yes,NA,Female,English,NA,2
129,default,block1,tony,projective,0.18,15871,pretend,7,pretend,C,NA,default,24,Yes,NA,Female,English,NA,3
129,default,block1,hat,projective,0.99,2993,MC,8,MC,MC,NA,default,24,Yes,NA,Female,English,NA,4
129,default,block1,jackson,projective,0.17,5667,confirm,9,confirm,C,NA,default,24,Yes,NA,Female,English,NA,5
129,default,block1,olivia,projective,0.08,6048,prove,10,prove,C,NA,default,24,Yes,NA,Female,English,NA,6
129,default,block1,pizza,projective,0.99,2899,MC,11,MC,MC,NA,default,24,Yes,NA,Female,English,NA,7
129,default,block1,jayden,projective,0.87,6271,acknowledge,12,acknowledge,C,NA,default,24,Yes,NA,Female,English,NA,8
129,default,block1,mary,projective,0.01,6762,be_right,13,be_right,C,NA,default,24,Yes,NA,Female,English,NA,9
129,default,block1,mia,projective,0.61,8368,think,14,think,C,NA,default,24,Yes,NA,Female,English,NA,10
129,default,block1,emma,projective,0.95,6750,inform,15,inform,C,NA,default,24,Yes,NA,Female,English,NA,11
129,default,block1,frank,projective,0.49,5023,see,16,see,C,NA,default,24,Yes,NA,Female,English,NA,12
129,default,block1,josie,projective,0.22,8938,demonstrate,17,demonstrate,C,NA,default,24,Yes,NA,Female,English,NA,13
129,default,block1,zoe,projective,0.2,11380,suggest,18,suggest,C,NA,default,24,Yes,NA,Female,English,NA,14
129,default,block1,charley,projective,0.42,11773,say,19,say,C,NA,default,24,Yes,NA,Female,English,NA,15
129,default,block1,owen,projective,0.35,14490,reveal,20,reveal,C,NA,default,24,Yes,NA,Female,English,NA,16
129,default,block1,grace,projective,0.43,9432,hear,21,hear,C,NA,default,24,Yes,NA,Female,English,NA,17
129,default,block1,kids,projective,1,8717,MC,22,MC,MC,NA,default,24,Yes,NA,Female,English,NA,18
129,default,block1,isabella,projective,0.14,5069,admit,23,admit,C,NA,default,24,Yes,NA,Female,English,NA,19
129,default,block1,sophia,projective,0.58,7671,establish,24,establish,C,NA,default,24,Yes,NA,Female,English,NA,20
129,default,block1,garage,projective,0.97,4846,MC,25,MC,MC,NA,default,24,Yes,NA,Female,English,NA,21
129,default,block1,jon,projective,0.93,6159,be_annoyed,26,be_annoyed,C,NA,default,24,Yes,NA,Female,English,NA,22
129,default,block1,muffins,projective,0.97,6432,MC,27,MC,MC,NA,default,24,Yes,NA,Female,English,NA,23
129,default,block1,julian,projective,0.29,6993,announce,28,announce,C,NA,default,24,Yes,NA,Female,English,NA,24
129,default,block1,josh,projective,0.84,6938,discover,29,discover,C,NA,default,24,Yes,NA,Female,English,NA,25
129,default,block1,danny,projective,0.96,4979,know,30,know,C,NA,default,24,Yes,NA,Female,English,NA,26
129,default,block2,mary,ai,0.9299999999999999,8965,be_right,32,be_right,C,NA,default,24,Yes,NA,Female,English,NA,27
129,default,block2,jon,ai,0.99,4060,be_annoyed,33,be_annoyed,C,NA,default,24,Yes,NA,Female,English,NA,28
129,default,block2,emily,ai,0.91,5336,confess,34,confess,C,NA,default,24,Yes,NA,Female,English,NA,29
129,default,block2,jackson,ai,0.96,4511,confirm,35,confirm,C,NA,default,24,Yes,NA,Female,English,NA,30
129,default,block2,kids,ai,0.030000000000000027,3855,MC,36,MC,MC,NA,default,24,Yes,NA,Female,English,NA,31
129,default,block2,jayden,ai,0.97,4707,acknowledge,37,acknowledge,C,NA,default,24,Yes,NA,Female,English,NA,32
129,default,block2,emma,ai,0.96,6521,inform,38,inform,C,NA,default,24,Yes,NA,Female,English,NA,33
129,default,block2,pizza,ai,0.020000000000000018,2882,MC,39,MC,MC,NA,default,24,Yes,NA,Female,English,NA,34
129,default,block2,muffins,ai,0.010000000000000009,3300,MC,40,MC,MC,NA,default,24,Yes,NA,Female,English,NA,35
129,default,block2,grace,ai,0.98,5456,hear,41,hear,C,NA,default,24,Yes,NA,Female,English,NA,36
129,default,block2,olivia,ai,0.99,4384,prove,42,prove,C,NA,default,24,Yes,NA,Female,English,NA,37
129,default,block2,julian,ai,0.97,4178,announce,43,announce,C,NA,default,24,Yes,NA,Female,English,NA,38
129,default,block2,josh,ai,0.71,6517,discover,44,discover,C,NA,default,24,Yes,NA,Female,English,NA,39
129,default,block2,josie,ai,0.8200000000000001,5101,demonstrate,45,demonstrate,C,NA,default,24,Yes,NA,Female,English,NA,40
129,default,block2,hat,ai,0.010000000000000009,2599,MC,46,MC,MC,NA,default,24,Yes,NA,Female,English,NA,41
129,default,block2,garage,ai,0.030000000000000027,3139,MC,47,MC,MC,NA,default,24,Yes,NA,Female,English,NA,42
129,default,block2,isabella,ai,0.95,3732,admit,48,admit,C,NA,default,24,Yes,NA,Female,English,NA,43
129,default,block2,ballet,ai,0.010000000000000009,2829,MC,49,MC,MC,NA,default,24,Yes,NA,Female,English,NA,44
129,default,block2,frank,ai,0.9299999999999999,6606,see,50,see,C,NA,default,24,Yes,NA,Female,English,NA,45
129,default,block2,zoe,ai,0.92,4950,suggest,51,suggest,C,NA,default,24,Yes,NA,Female,English,NA,46
129,default,block2,charley,ai,0.94,3444,say,52,say,C,NA,default,24,Yes,NA,Female,English,NA,47
129,default,block2,owen,ai,1,4631,reveal,53,reveal,C,NA,default,24,Yes,NA,Female,English,NA,48
129,default,block2,tony,ai,0.99,4099,pretend,54,pretend,C,NA,default,24,Yes,NA,Female,English,NA,49
129,default,block2,mia,ai,0.98,3555,think,55,think,C,NA,default,24,Yes,NA,Female,English,NA,50
129,default,block2,sophia,ai,0.98,4072,establish,56,establish,C,NA,default,24,Yes,NA,Female,English,NA,51
129,default,block2,danny,ai,0.97,3454,know,57,know,C,NA,default,24,Yes,NA,Female,English,NA,52
207,default,block1,frank,ai,1,20197,discover,5,discover,C,NA,default,25,Yes,N/A,Male,English,NA,1
207,default,block1,grace,ai,1,17288,confirm,6,confirm,C,NA,default,25,Yes,N/A,Male,English,NA,2
207,default,block1,olivia,ai,1,12663,acknowledge,7,acknowledge,C,NA,default,25,Yes,N/A,Male,English,NA,3
207,default,block1,charley,ai,1,10925,see,8,see,C,NA,default,25,Yes,N/A,Male,English,NA,4
207,default,block1,jackson,ai,1,7936,inform,9,inform,C,NA,default,25,Yes,N/A,Male,English,NA,5
207,default,block1,danny,ai,1,11167,pretend,10,pretend,C,NA,default,25,Yes,N/A,Male,English,NA,6
207,default,block1,pizza,ai,0.040000000000000036,9718,MC,11,MC,MC,NA,default,25,Yes,N/A,Male,English,NA,7
207,default,block1,emma,ai,0.97,7159,announce,12,announce,C,NA,default,25,Yes,N/A,Male,English,NA,8
207,default,block1,muffins,ai,0.020000000000000018,7117,MC,13,MC,MC,NA,default,25,Yes,N/A,Male,English,NA,9
207,default,block1,garage,ai,0.040000000000000036,27925,MC,14,MC,MC,NA,default,25,Yes,N/A,Male,English,NA,10
207,default,block1,sophia,ai,0.99,6324,prove,15,prove,C,NA,default,25,Yes,N/A,Male,English,NA,11
207,default,block1,emily,ai,1,7205,be_right,16,be_right,C,NA,default,25,Yes,N/A,Male,English,NA,12
207,default,block1,zoe,ai,0.98,6950,confess,17,confess,C,NA,default,25,Yes,N/A,Male,English,NA,13
207,default,block1,jon,ai,0.96,7565,know,18,know,C,NA,default,25,Yes,N/A,Male,English,NA,14
207,default,block1,owen,ai,0.98,4988,say,19,say,C,NA,default,25,Yes,N/A,Male,English,NA,15
207,default,block1,mary,ai,1,6403,be_annoyed,20,be_annoyed,C,NA,default,25,Yes,N/A,Male,English,NA,16
207,default,block1,jayden,ai,0.99,5097,hear,21,hear,C,NA,default,25,Yes,N/A,Male,English,NA,17
207,default,block1,julian,ai,1,5468,reveal,22,reveal,C,NA,default,25,Yes,N/A,Male,English,NA,18
207,default,block1,josh,ai,1,11787,suggest,23,suggest,C,NA,default,25,Yes,N/A,Male,English,NA,19
207,default,block1,isabella,ai,1,5306,think,24,think,C,NA,default,25,Yes,N/A,Male,English,NA,20
207,default,block1,tony,ai,0.98,4991,admit,25,admit,C,NA,default,25,Yes,N/A,Male,English,NA,21
207,default,block1,josie,ai,0.99,5047,establish,26,establish,C,NA,default,25,Yes,N/A,Male,English,NA,22
207,default,block1,mia,ai,1,6844,demonstrate,27,demonstrate,C,NA,default,25,Yes,N/A,Male,English,NA,23
207,default,block1,hat,ai,0,4418,MC,28,MC,MC,NA,default,25,Yes,N/A,Male,English,NA,24
207,default,block1,ballet,ai,0.020000000000000018,4052,MC,29,MC,MC,NA,default,25,Yes,N/A,Male,English,NA,25
207,default,block1,kids,ai,0.020000000000000018,4575,MC,30,MC,MC,NA,default,25,Yes,N/A,Male,English,NA,26
207,default,block2,charley,projective,0.02,12357,see,32,see,C,NA,default,25,Yes,N/A,Male,English,NA,27
207,default,block2,jayden,projective,0.02,4377,hear,33,hear,C,NA,default,25,Yes,N/A,Male,English,NA,28
207,default,block2,emma,projective,0.03,6757,announce,34,announce,C,NA,default,25,Yes,N/A,Male,English,NA,29
207,default,block2,hat,projective,0.98,5646,MC,35,MC,MC,NA,default,25,Yes,N/A,Male,English,NA,30
207,default,block2,emily,projective,0.01,95211,be_right,36,be_right,C,NA,default,25,Yes,N/A,Male,English,NA,31
207,default,block2,olivia,projective,0.03,9636,acknowledge,37,acknowledge,C,NA,default,25,Yes,N/A,Male,English,NA,32
207,default,block2,owen,projective,0,4778,say,38,say,C,NA,default,25,Yes,N/A,Male,English,NA,33
207,default,block2,mary,projective,0.02,11937,be_annoyed,39,be_annoyed,C,NA,default,25,Yes,N/A,Male,English,NA,34
207,default,block2,josh,projective,0.02,4638,suggest,40,suggest,C,NA,default,25,Yes,N/A,Male,English,NA,35
207,default,block2,julian,projective,0.03,3678,reveal,41,reveal,C,NA,default,25,Yes,N/A,Male,English,NA,36
207,default,block2,pizza,projective,0.97,3336,MC,42,MC,MC,NA,default,25,Yes,N/A,Male,English,NA,37
207,default,block2,frank,projective,0.01,5769,discover,43,discover,C,NA,default,25,Yes,N/A,Male,English,NA,38
207,default,block2,jon,projective,0.03,3969,know,44,know,C,NA,default,25,Yes,N/A,Male,English,NA,39
207,default,block2,tony,projective,0.01,2398,admit,45,admit,C,NA,default,25,Yes,N/A,Male,English,NA,40
207,default,block2,ballet,projective,0.98,6097,MC,46,MC,MC,NA,default,25,Yes,N/A,Male,English,NA,41
207,default,block2,grace,projective,0,4529,confirm,47,confirm,C,NA,default,25,Yes,N/A,Male,English,NA,42
207,default,block2,zoe,projective,0.01,3588,confess,48,confess,C,NA,default,25,Yes,N/A,Male,English,NA,43
207,default,block2,muffins,projective,0.98,2963,MC,49,MC,MC,NA,default,25,Yes,N/A,Male,English,NA,44
207,default,block2,kids,projective,0.98,5699,MC,50,MC,MC,NA,default,25,Yes,N/A,Male,English,NA,45
207,default,block2,isabella,projective,0.01,4768,think,51,think,C,NA,default,25,Yes,N/A,Male,English,NA,46
207,default,block2,sophia,projective,0.03,46235,prove,52,prove,C,NA,default,25,Yes,N/A,Male,English,NA,47
207,default,block2,mia,projective,0.02,8620,demonstrate,53,demonstrate,C,NA,default,25,Yes,N/A,Male,English,NA,48
207,default,block2,josie,projective,0.04,2900,establish,54,establish,C,NA,default,25,Yes,N/A,Male,English,NA,49
207,default,block2,danny,projective,0,19355,pretend,55,pretend,C,NA,default,25,Yes,N/A,Male,English,NA,50
207,default,block2,garage,projective,0.98,5219,MC,56,MC,MC,NA,default,25,Yes,N/A,Male,English,NA,51
207,default,block2,jackson,projective,0.01,3089,inform,57,inform,C,NA,default,25,Yes,N/A,Male,English,NA,52
353,default,block1,mary,projective,0.79,9275,hear,5,hear,C,NA,default,47,Yes,NA,Female,english,NA,1
353,default,block1,jayden,projective,0.74,11602,acknowledge,6,acknowledge,C,NA,default,47,Yes,NA,Female,english,NA,2
353,default,block1,tony,projective,0.72,5991,discover,7,discover,C,NA,default,47,Yes,NA,Female,english,NA,3
353,default,block1,charley,projective,0.8,7085,announce,8,announce,C,NA,default,47,Yes,NA,Female,english,NA,4
353,default,block1,pizza,projective,0.96,5981,MC,9,MC,MC,NA,default,47,Yes,NA,Female,english,NA,5
353,default,block1,mia,projective,0.52,9386,prove,10,prove,C,NA,default,47,Yes,NA,Female,english,NA,6
353,default,block1,jon,projective,0.87,9740,inform,11,inform,C,NA,default,47,Yes,NA,Female,english,NA,7
353,default,block1,frank,projective,0.78,7177,say,12,say,C,NA,default,47,Yes,NA,Female,english,NA,8
353,default,block1,isabella,projective,0.46,9819,confirm,13,confirm,C,NA,default,47,Yes,NA,Female,english,NA,9
353,default,block1,muffins,projective,0.98,3964,MC,14,MC,MC,NA,default,47,Yes,NA,Female,english,NA,10
353,default,block1,julian,projective,0.62,9255,admit,15,admit,C,NA,default,47,Yes,NA,Female,english,NA,11
353,default,block1,emma,projective,0.21,11434,pretend,16,pretend,C,NA,default,47,Yes,NA,Female,english,NA,12
353,default,block1,garage,projective,0.98,4662,MC,17,MC,MC,NA,default,47,Yes,NA,Female,english,NA,13
353,default,block1,josh,projective,0.73,5676,reveal,18,reveal,C,NA,default,47,Yes,NA,Female,english,NA,14
353,default,block1,kids,projective,0.97,5342,MC,19,MC,MC,NA,default,47,Yes,NA,Female,english,NA,15
353,default,block1,emily,projective,0.48,4653,demonstrate,20,demonstrate,C,NA,default,47,Yes,NA,Female,english,NA,16
353,default,block1,hat,projective,0.91,3912,MC,21,MC,MC,NA,default,47,Yes,NA,Female,english,NA,17
353,default,block1,danny,projective,0.18,9073,think,22,think,C,NA,default,47,Yes,NA,Female,english,NA,18
353,default,block1,sophia,projective,0.18,5417,suggest,23,suggest,C,NA,default,47,Yes,NA,Female,english,NA,19
353,default,block1,josie,projective,0.11,8311,be_right,24,be_right,C,NA,default,47,Yes,NA,Female,english,NA,20
353,default,block1,jackson,projective,0.47,6964,see,25,see,C,NA,default,47,Yes,NA,Female,english,NA,21
353,default,block1,owen,projective,0.76,5645,know,26,know,C,NA,default,47,Yes,NA,Female,english,NA,22
353,default,block1,ballet,projective,0.93,4450,MC,27,MC,MC,NA,default,47,Yes,NA,Female,english,NA,23
353,default,block1,grace,projective,0.25,5969,confess,28,confess,C,NA,default,47,Yes,NA,Female,english,NA,24
353,default,block1,zoe,projective,0.28,9538,establish,29,establish,C,NA,default,47,Yes,NA,Female,english,NA,25
353,default,block1,olivia,projective,0.9,7450,be_annoyed,30,be_annoyed,C,NA,default,47,Yes,NA,Female,english,NA,26
353,default,block2,jon,ai,0.95,13885,inform,32,inform,C,NA,default,47,Yes,NA,Female,english,NA,27
353,default,block2,ballet,ai,0.06000000000000005,5473,MC,33,MC,MC,NA,default,47,Yes,NA,Female,english,NA,28
353,default,block2,danny,ai,0.9,8038,think,34,think,C,NA,default,47,Yes,NA,Female,english,NA,29
353,default,block2,sophia,ai,0.86,7773,suggest,35,suggest,C,NA,default,47,Yes,NA,Female,english,NA,30
353,default,block2,frank,ai,0.9,4981,say,36,say,C,NA,default,47,Yes,NA,Female,english,NA,31
353,default,block2,josie,ai,0.9,5580,be_right,37,be_right,C,NA,default,47,Yes,NA,Female,english,NA,32
353,default,block2,garage,ai,0.06000000000000005,4936,MC,38,MC,MC,NA,default,47,Yes,NA,Female,english,NA,33
353,default,block2,josh,ai,0.89,4845,reveal,39,reveal,C,NA,default,47,Yes,NA,Female,english,NA,34
353,default,block2,zoe,ai,0.87,5067,establish,40,establish,C,NA,default,47,Yes,NA,Female,english,NA,35
353,default,block2,hat,ai,0.030000000000000027,3994,MC,41,MC,MC,NA,default,47,Yes,NA,Female,english,NA,36
353,default,block2,emma,ai,0.91,5483,pretend,42,pretend,C,NA,default,47,Yes,NA,Female,english,NA,37
353,default,block2,tony,ai,0.9,7744,discover,43,discover,C,NA,default,47,Yes,NA,Female,english,NA,38
353,default,block2,isabella,ai,0.88,4155,confirm,44,confirm,C,NA,default,47,Yes,NA,Female,english,NA,39
353,default,block2,mia,ai,0.91,5534,prove,45,prove,C,NA,default,47,Yes,NA,Female,english,NA,40
353,default,block2,jayden,ai,0.9,5362,acknowledge,46,acknowledge,C,NA,default,47,Yes,NA,Female,english,NA,41
353,default,block2,jackson,ai,0.94,5067,see,47,see,C,NA,default,47,Yes,NA,Female,english,NA,42
353,default,block2,julian,ai,0.91,3293,admit,48,admit,C,NA,default,47,Yes,NA,Female,english,NA,43
353,default,block2,muffins,ai,0.020000000000000018,4291,MC,49,MC,MC,NA,default,47,Yes,NA,Female,english,NA,44
353,default,block2,mary,ai,0.95,3573,hear,50,hear,C,NA,default,47,Yes,NA,Female,english,NA,45
353,default,block2,charley,ai,0.9299999999999999,5292,announce,51,announce,C,NA,default,47,Yes,NA,Female,english,NA,46
353,default,block2,grace,ai,0.95,3718,confess,52,confess,C,NA,default,47,Yes,NA,Female,english,NA,47
353,default,block2,kids,ai,0.030000000000000027,5065,MC,53,MC,MC,NA,default,47,Yes,NA,Female,english,NA,48
353,default,block2,owen,ai,0.96,4651,know,54,know,C,NA,default,47,Yes,NA,Female,english,NA,49
353,default,block2,pizza,ai,0.030000000000000027,3669,MC,55,MC,MC,NA,default,47,Yes,NA,Female,english,NA,50
353,default,block2,olivia,ai,0.9,3617,be_annoyed,56,be_annoyed,C,NA,default,47,Yes,NA,Female,english,NA,51
353,default,block2,emily,ai,0.92,4114,demonstrate,57,demonstrate,C,NA,default,47,Yes,NA,Female,english,NA,52
273,default,block1,ballet,ai,0.020000000000000018,6430,MC,5,MC,MC,NA,default,22,Yes,The second half was much more difficult since there was a lack of context to the rest of the conversation. I reread the conversations in my head and for some it sounded as though the statements were true when there was a lack of context.,Male,English,NA,1
273,default,block1,danny,ai,1,5169,confess,6,confess,C,NA,default,22,Yes,The second half was much more difficult since there was a lack of context to the rest of the conversation. I reread the conversations in my head and for some it sounded as though the statements were true when there was a lack of context.,Male,English,NA,2
273,default,block1,emma,ai,1,8408,know,7,know,C,NA,default,22,Yes,The second half was much more difficult since there was a lack of context to the rest of the conversation. I reread the conversations in my head and for some it sounded as though the statements were true when there was a lack of context.,Male,English,NA,3
273,default,block1,jon,ai,1,15277,prove,8,prove,C,NA,default,22,Yes,The second half was much more difficult since there was a lack of context to the rest of the conversation. I reread the conversations in my head and for some it sounded as though the statements were true when there was a lack of context.,Male,English,NA,4
273,default,block1,pizza,ai,0,21629,MC,9,MC,MC,NA,default,22,Yes,The second half was much more difficult since there was a lack of context to the rest of the conversation. I reread the conversations in my head and for some it sounded as though the statements were true when there was a lack of context.,Male,English,NA,5
273,default,block1,josie,ai,1,4701,be_right,10,be_right,C,NA,default,22,Yes,The second half was much more difficult since there was a lack of context to the rest of the conversation. I reread the conversations in my head and for some it sounded as though the statements were true when there was a lack of context.,Male,English,NA,6
273,default,block1,hat,ai,0,2639,MC,11,MC,MC,NA,default,22,Yes,The second half was much more difficult since there was a lack of context to the rest of the conversation. I reread the conversations in my head and for some it sounded as though the statements were true when there was a lack of context.,Male,English,NA,7
273,default,block1,isabella,ai,1,6232,discover,12,discover,C,NA,default,22,Yes,The second half was much more difficult since there was a lack of context to the rest of the conversation. I reread the conversations in my head and for some it sounded as though the statements were true when there was a lack of context.,Male,English,NA,8
273,default,block1,mary,ai,0.99,5183,demonstrate,13,demonstrate,C,NA,default,22,Yes,The second half was much more difficult since there was a lack of context to the rest of the conversation. I reread the conversations in my head and for some it sounded as though the statements were true when there was a lack of context.,Male,English,NA,9
273,default,block1,olivia,ai,1,13591,confirm,14,confirm,C,NA,default,22,Yes,The second half was much more difficult since there was a lack of context to the rest of the conversation. I reread the conversations in my head and for some it sounded as though the statements were true when there was a lack of context.,Male,English,NA,10
273,default,block1,frank,ai,1,6827,inform,15,inform,C,NA,default,22,Yes,The second half was much more difficult since there was a lack of context to the rest of the conversation. I reread the conversations in my head and for some it sounded as though the statements were true when there was a lack of context.,Male,English,NA,11
273,default,block1,muffins,ai,0.010000000000000009,4215,MC,16,MC,MC,NA,default,22,Yes,The second half was much more difficult since there was a lack of context to the rest of the conversation. I reread the conversations in my head and for some it sounded as though the statements were true when there was a lack of context.,Male,English,NA,12
273,default,block1,emily,ai,1,4168,be_annoyed,17,be_annoyed,C,NA,default,22,Yes,The second half was much more difficult since there was a lack of context to the rest of the conversation. I reread the conversations in my head and for some it sounded as though the statements were true when there was a lack of context.,Male,English,NA,13
273,default,block1,kids,ai,0,6130,MC,18,MC,MC,NA,default,22,Yes,The second half was much more difficult since there was a lack of context to the rest of the conversation. I reread the conversations in my head and for some it sounded as though the statements were true when there was a lack of context.,Male,English,NA,14
273,default,block1,josh,ai,1,5144,hear,19,hear,C,NA,default,22,Yes,The second half was much more difficult since there was a lack of context to the rest of the conversation. I reread the conversations in my head and for some it sounded as though the statements were true when there was a lack of context.,Male,English,NA,15
273,default,block1,sophia,ai,1,6527,suggest,20,suggest,C,NA,default,22,Yes,The second half was much more difficult since there was a lack of context to the rest of the conversation. I reread the conversations in my head and for some it sounded as though the statements were true when there was a lack of context.,Male,English,NA,16
273,default,block1,owen,ai,1,9454,admit,21,admit,C,NA,default,22,Yes,The second half was much more difficult since there was a lack of context to the rest of the conversation. I reread the conversations in my head and for some it sounded as though the statements were true when there was a lack of context.,Male,English,NA,17
273,default,block1,garage,ai,0,2265,MC,22,MC,MC,NA,default,22,Yes,The second half was much more difficult since there was a lack of context to the rest of the conversation. I reread the conversations in my head and for some it sounded as though the statements were true when there was a lack of context.,Male,English,NA,18
273,default,block1,jayden,ai,1,3264,establish,23,establish,C,NA,default,22,Yes,The second half was much more difficult since there was a lack of context to the rest of the conversation. I reread the conversations in my head and for some it sounded as though the statements were true when there was a lack of context.,Male,English,NA,19
273,default,block1,jackson,ai,1,1839,reveal,24,reveal,C,NA,default,22,Yes,The second half was much more difficult since there was a lack of context to the rest of the conversation. I reread the conversations in my head and for some it sounded as though the statements were true when there was a lack of context.,Male,English,NA,20
273,default,block1,grace,ai,1,2446,announce,25,announce,C,NA,default,22,Yes,The second half was much more difficult since there was a lack of context to the rest of the conversation. I reread the conversations in my head and for some it sounded as though the statements were true when there was a lack of context.,Male,English,NA,21
273,default,block1,julian,ai,1,2261,acknowledge,26,acknowledge,C,NA,default,22,Yes,The second half was much more difficult since there was a lack of context to the rest of the conversation. I reread the conversations in my head and for some it sounded as though the statements were true when there was a lack of context.,Male,English,NA,22
273,default,block1,mia,ai,1,2123,pretend,27,pretend,C,NA,default,22,Yes,The second half was much more difficult since there was a lack of context to the rest of the conversation. I reread the conversations in my head and for some it sounded as though the statements were true when there was a lack of context.,Male,English,NA,23
273,default,block1,charley,ai,1,2699,see,28,see,C,NA,default,22,Yes,The second half was much more difficult since there was a lack of context to the rest of the conversation. I reread the conversations in my head and for some it sounded as though the statements were true when there was a lack of context.,Male,English,NA,24
273,default,block1,tony,ai,1,2974,think,29,think,C,NA,default,22,Yes,The second half was much more difficult since there was a lack of context to the rest of the conversation. I reread the conversations in my head and for some it sounded as though the statements were true when there was a lack of context.,Male,English,NA,25
273,default,block1,zoe,ai,1,2211,say,30,say,C,NA,default,22,Yes,The second half was much more difficult since there was a lack of context to the rest of the conversation. I reread the conversations in my head and for some it sounded as though the statements were true when there was a lack of context.,Male,English,NA,26
273,default,block2,jackson,projective,0,17227,reveal,32,reveal,C,NA,default,22,Yes,The second half was much more difficult since there was a lack of context to the rest of the conversation. I reread the conversations in my head and for some it sounded as though the statements were true when there was a lack of context.,Male,English,NA,27
273,default,block2,isabella,projective,0,15057,discover,33,discover,C,NA,default,22,Yes,The second half was much more difficult since there was a lack of context to the rest of the conversation. I reread the conversations in my head and for some it sounded as though the statements were true when there was a lack of context.,Male,English,NA,28
273,default,block2,julian,projective,0,8782,acknowledge,34,acknowledge,C,NA,default,22,Yes,The second half was much more difficult since there was a lack of context to the rest of the conversation. I reread the conversations in my head and for some it sounded as though the statements were true when there was a lack of context.,Male,English,NA,29
273,default,block2,frank,projective,0,5680,inform,35,inform,C,NA,default,22,Yes,The second half was much more difficult since there was a lack of context to the rest of the conversation. I reread the conversations in my head and for some it sounded as though the statements were true when there was a lack of context.,Male,English,NA,30
273,default,block2,garage,projective,1,2915,MC,36,MC,MC,NA,default,22,Yes,The second half was much more difficult since there was a lack of context to the rest of the conversation. I reread the conversations in my head and for some it sounded as though the statements were true when there was a lack of context.,Male,English,NA,31
273,default,block2,charley,projective,0,2694,see,37,see,C,NA,default,22,Yes,The second half was much more difficult since there was a lack of context to the rest of the conversation. I reread the conversations in my head and for some it sounded as though the statements were true when there was a lack of context.,Male,English,NA,32
273,default,block2,josh,projective,0,1465,hear,38,hear,C,NA,default,22,Yes,The second half was much more difficult since there was a lack of context to the rest of the conversation. I reread the conversations in my head and for some it sounded as though the statements were true when there was a lack of context.,Male,English,NA,33
273,default,block2,emma,projective,0,2735,know,39,know,C,NA,default,22,Yes,The second half was much more difficult since there was a lack of context to the rest of the conversation. I reread the conversations in my head and for some it sounded as though the statements were true when there was a lack of context.,Male,English,NA,34
273,default,block2,emily,projective,1,14723,be_annoyed,40,be_annoyed,C,NA,default,22,Yes,The second half was much more difficult since there was a lack of context to the rest of the conversation. I reread the conversations in my head and for some it sounded as though the statements were true when there was a lack of context.,Male,English,NA,35
273,default,block2,hat,projective,1,3550,MC,41,MC,MC,NA,default,22,Yes,The second half was much more difficult since there was a lack of context to the rest of the conversation. I reread the conversations in my head and for some it sounded as though the statements were true when there was a lack of context.,Male,English,NA,36
273,default,block2,josie,projective,1,6490,be_right,42,be_right,C,NA,default,22,Yes,The second half was much more difficult since there was a lack of context to the rest of the conversation. I reread the conversations in my head and for some it sounded as though the statements were true when there was a lack of context.,Male,English,NA,37
273,default,block2,jon,projective,0,9726,prove,43,prove,C,NA,default,22,Yes,The second half was much more difficult since there was a lack of context to the rest of the conversation. I reread the conversations in my head and for some it sounded as though the statements were true when there was a lack of context.,Male,English,NA,38
273,default,block2,tony,projective,1,5902,think,44,think,C,NA,default,22,Yes,The second half was much more difficult since there was a lack of context to the rest of the conversation. I reread the conversations in my head and for some it sounded as though the statements were true when there was a lack of context.,Male,English,NA,39
273,default,block2,mary,projective,0.01,15128,demonstrate,45,demonstrate,C,NA,default,22,Yes,The second half was much more difficult since there was a lack of context to the rest of the conversation. I reread the conversations in my head and for some it sounded as though the statements were true when there was a lack of context.,Male,English,NA,40
273,default,block2,ballet,projective,1,3065,MC,46,MC,MC,NA,default,22,Yes,The second half was much more difficult since there was a lack of context to the rest of the conversation. I reread the conversations in my head and for some it sounded as though the statements were true when there was a lack of context.,Male,English,NA,41
273,default,block2,kids,projective,1,4050,MC,47,MC,MC,NA,default,22,Yes,The second half was much more difficult since there was a lack of context to the rest of the conversation. I reread the conversations in my head and for some it sounded as though the statements were true when there was a lack of context.,Male,English,NA,42
273,default,block2,danny,projective,0.01,4549,confess,48,confess,C,NA,default,22,Yes,The second half was much more difficult since there was a lack of context to the rest of the conversation. I reread the conversations in my head and for some it sounded as though the statements were true when there was a lack of context.,Male,English,NA,43
273,default,block2,sophia,projective,0.01,9204,suggest,49,suggest,C,NA,default,22,Yes,The second half was much more difficult since there was a lack of context to the rest of the conversation. I reread the conversations in my head and for some it sounded as though the statements were true when there was a lack of context.,Male,English,NA,44
273,default,block2,olivia,projective,0,1547,confirm,50,confirm,C,NA,default,22,Yes,The second half was much more difficult since there was a lack of context to the rest of the conversation. I reread the conversations in my head and for some it sounded as though the statements were true when there was a lack of context.,Male,English,NA,45
273,default,block2,owen,projective,0,5763,admit,51,admit,C,NA,default,22,Yes,The second half was much more difficult since there was a lack of context to the rest of the conversation. I reread the conversations in my head and for some it sounded as though the statements were true when there was a lack of context.,Male,English,NA,46
273,default,block2,zoe,projective,0.01,6420,say,52,say,C,NA,default,22,Yes,The second half was much more difficult since there was a lack of context to the rest of the conversation. I reread the conversations in my head and for some it sounded as though the statements were true when there was a lack of context.,Male,English,NA,47
273,default,block2,pizza,projective,1,1900,MC,53,MC,MC,NA,default,22,Yes,The second half was much more difficult since there was a lack of context to the rest of the conversation. I reread the conversations in my head and for some it sounded as though the statements were true when there was a lack of context.,Male,English,NA,48
273,default,block2,mia,projective,0,4281,pretend,54,pretend,C,NA,default,22,Yes,The second half was much more difficult since there was a lack of context to the rest of the conversation. I reread the conversations in my head and for some it sounded as though the statements were true when there was a lack of context.,Male,English,NA,49
273,default,block2,jayden,projective,0,9542,establish,55,establish,C,NA,default,22,Yes,The second half was much more difficult since there was a lack of context to the rest of the conversation. I reread the conversations in my head and for some it sounded as though the statements were true when there was a lack of context.,Male,English,NA,50
273,default,block2,muffins,projective,1,1601,MC,56,MC,MC,NA,default,22,Yes,The second half was much more difficult since there was a lack of context to the rest of the conversation. I reread the conversations in my head and for some it sounded as though the statements were true when there was a lack of context.,Male,English,NA,51
273,default,block2,grace,projective,0.03,1659,announce,57,announce,C,NA,default,22,Yes,The second half was much more difficult since there was a lack of context to the rest of the conversation. I reread the conversations in my head and for some it sounded as though the statements were true when there was a lack of context.,Male,English,NA,52
48,default,block1,charley,projective,1,12251,reveal,5,reveal,C,NA,default,23,Yes,NA,Male,English,NA,1
48,default,block1,garage,projective,1,6169,MC,6,MC,MC,NA,default,23,Yes,NA,Male,English,NA,2
48,default,block1,muffins,projective,1,4033,MC,7,MC,MC,NA,default,23,Yes,NA,Male,English,NA,3
48,default,block1,hat,projective,1,3510,MC,8,MC,MC,NA,default,23,Yes,NA,Male,English,NA,4
48,default,block1,danny,projective,1,6047,see,9,see,C,NA,default,23,Yes,NA,Male,English,NA,5
48,default,block1,grace,projective,1,8637,know,10,know,C,NA,default,23,Yes,NA,Male,English,NA,6
48,default,block1,jon,projective,1,10032,admit,11,admit,C,NA,default,23,Yes,NA,Male,English,NA,7
48,default,block1,mia,projective,0.01,8912,prove,12,prove,C,NA,default,23,Yes,NA,Male,English,NA,8
48,default,block1,mary,projective,0.64,77127,acknowledge,13,acknowledge,C,NA,default,23,Yes,NA,Male,English,NA,9
48,default,block1,emily,projective,1,7655,announce,14,announce,C,NA,default,23,Yes,NA,Male,English,NA,10
48,default,block1,josie,projective,0.13,10085,establish,15,establish,C,NA,default,23,Yes,NA,Male,English,NA,11
48,default,block1,zoe,projective,0.85,11075,confess,16,confess,C,NA,default,23,Yes,NA,Male,English,NA,12
48,default,block1,emma,projective,0,5642,suggest,17,suggest,C,NA,default,23,Yes,NA,Male,English,NA,13
48,default,block1,isabella,projective,0,12096,pretend,18,pretend,C,NA,default,23,Yes,NA,Male,English,NA,14
48,default,block1,tony,projective,0,20715,confirm,19,confirm,C,NA,default,23,Yes,NA,Male,English,NA,15
48,default,block1,olivia,projective,0.5,27389,be_right,20,be_right,C,NA,default,23,Yes,NA,Male,English,NA,16
48,default,block1,kids,projective,1,5464,MC,21,MC,MC,NA,default,23,Yes,NA,Male,English,NA,17
48,default,block1,owen,projective,1,7595,discover,22,discover,C,NA,default,23,Yes,NA,Male,English,NA,18
48,default,block1,ballet,projective,1,4493,MC,23,MC,MC,NA,default,23,Yes,NA,Male,English,NA,19
48,default,block1,frank,projective,1,125113,hear,24,hear,C,NA,default,23,Yes,NA,Male,English,NA,20
48,default,block1,jackson,projective,0,22877,demonstrate,25,demonstrate,C,NA,default,23,Yes,NA,Male,English,NA,21
48,default,block1,julian,projective,1,38887,inform,26,inform,C,NA,default,23,Yes,NA,Male,English,NA,22
48,default,block1,jayden,projective,0.36,11678,think,27,think,C,NA,default,23,Yes,NA,Male,English,NA,23
48,default,block1,josh,projective,1,120857,be_annoyed,28,be_annoyed,C,NA,default,23,Yes,NA,Male,English,NA,24
48,default,block1,sophia,projective,0.74,7255,say,29,say,C,NA,default,23,Yes,NA,Male,English,NA,25
48,default,block1,pizza,projective,1,3161,MC,30,MC,MC,NA,default,23,Yes,NA,Male,English,NA,26
48,default,block2,owen,ai,0,6799,discover,32,discover,C,NA,default,23,Yes,NA,Male,English,NA,27
48,default,block2,mia,ai,0,5325,prove,33,prove,C,NA,default,23,Yes,NA,Male,English,NA,28
48,default,block2,zoe,ai,0,5064,confess,34,confess,C,NA,default,23,Yes,NA,Male,English,NA,29
48,default,block2,frank,ai,0,3520,hear,35,hear,C,NA,default,23,Yes,NA,Male,English,NA,30
48,default,block2,emma,ai,0,6187,suggest,36,suggest,C,NA,default,23,Yes,NA,Male,English,NA,31
48,default,block2,danny,ai,0.7,7739,see,37,see,C,NA,default,23,Yes,NA,Male,English,NA,32
48,default,block2,ballet,ai,0,2839,MC,38,MC,MC,NA,default,23,Yes,NA,Male,English,NA,33
48,default,block2,julian,ai,0.76,4448,inform,39,inform,C,NA,default,23,Yes,NA,Male,English,NA,34
48,default,block2,kids,ai,0,4511,MC,40,MC,MC,NA,default,23,Yes,NA,Male,English,NA,35
48,default,block2,grace,ai,1,8239,know,41,know,C,NA,default,23,Yes,NA,Male,English,NA,36
48,default,block2,mary,ai,1,3997,acknowledge,42,acknowledge,C,NA,default,23,Yes,NA,Male,English,NA,37
48,default,block2,hat,ai,0,2253,MC,43,MC,MC,NA,default,23,Yes,NA,Male,English,NA,38
48,default,block2,josh,ai,0.88,6519,be_annoyed,44,be_annoyed,C,NA,default,23,Yes,NA,Male,English,NA,39
48,default,block2,charley,ai,1,7109,reveal,45,reveal,C,NA,default,23,Yes,NA,Male,English,NA,40
48,default,block2,pizza,ai,0,2116,MC,46,MC,MC,NA,default,23,Yes,NA,Male,English,NA,41
48,default,block2,muffins,ai,0,2590,MC,47,MC,MC,NA,default,23,Yes,NA,Male,English,NA,42
48,default,block2,jackson,ai,1,16497,demonstrate,48,demonstrate,C,NA,default,23,Yes,NA,Male,English,NA,43
48,default,block2,isabella,ai,1,55999,pretend,49,pretend,C,NA,default,23,Yes,NA,Male,English,NA,44
48,default,block2,jayden,ai,0,46768,think,50,think,C,NA,default,23,Yes,NA,Male,English,NA,45
48,default,block2,olivia,ai,1,24451,be_right,51,be_right,C,NA,default,23,Yes,NA,Male,English,NA,46
48,default,block2,tony,ai,0.30000000000000004,132726,confirm,52,confirm,C,NA,default,23,Yes,NA,Male,English,NA,47
48,default,block2,sophia,ai,1,3781,say,53,say,C,NA,default,23,Yes,NA,Male,English,NA,48
48,default,block2,jon,ai,1,2861,admit,54,admit,C,NA,default,23,Yes,NA,Male,English,NA,49
48,default,block2,emily,ai,1,3330,announce,55,announce,C,NA,default,23,Yes,NA,Male,English,NA,50
48,default,block2,garage,ai,0,128219,MC,56,MC,MC,NA,default,23,Yes,NA,Male,English,NA,51
48,default,block2,josie,ai,0.52,7751,establish,57,establish,C,NA,default,23,Yes,NA,Male,English,NA,52
197,default,block1,kids,ai,0.010000000000000009,15819,MC,5,MC,MC,NA,default,28,Yes,NA,Female,english,NA,1
197,default,block1,olivia,ai,0.86,10734,think,6,think,C,NA,default,28,Yes,NA,Female,english,NA,2
197,default,block1,charley,ai,0.91,8606,admit,7,admit,C,NA,default,28,Yes,NA,Female,english,NA,3
197,default,block1,danny,ai,0.91,9061,know,8,know,C,NA,default,28,Yes,NA,Female,english,NA,4
197,default,block1,owen,ai,0.51,15400,confirm,9,confirm,C,NA,default,28,Yes,NA,Female,english,NA,5
197,default,block1,mary,ai,0.91,11184,establish,10,establish,C,NA,default,28,Yes,NA,Female,english,NA,6
197,default,block1,grace,ai,0.9,9696,announce,11,announce,C,NA,default,28,Yes,NA,Female,english,NA,7
197,default,block1,pizza,ai,0.010000000000000009,6727,MC,12,MC,MC,NA,default,28,Yes,NA,Female,english,NA,8
197,default,block1,ballet,ai,0.020000000000000018,6169,MC,13,MC,MC,NA,default,28,Yes,NA,Female,english,NA,9
197,default,block1,jackson,ai,0.16000000000000003,11532,be_right,14,be_right,C,NA,default,28,Yes,NA,Female,english,NA,10
197,default,block1,josie,ai,0.85,8198,hear,15,hear,C,NA,default,28,Yes,NA,Female,english,NA,11
197,default,block1,jayden,ai,0.91,9097,confess,16,confess,C,NA,default,28,Yes,NA,Female,english,NA,12
197,default,block1,muffins,ai,0.010000000000000009,6655,MC,17,MC,MC,NA,default,28,Yes,NA,Female,english,NA,13
197,default,block1,emma,ai,0.89,6634,say,18,say,C,NA,default,28,Yes,NA,Female,english,NA,14
197,default,block1,zoe,ai,0.92,8201,acknowledge,19,acknowledge,C,NA,default,28,Yes,NA,Female,english,NA,15
197,default,block1,josh,ai,0.74,8206,prove,20,prove,C,NA,default,28,Yes,NA,Female,english,NA,16
197,default,block1,garage,ai,0.010000000000000009,8162,MC,21,MC,MC,NA,default,28,Yes,NA,Female,english,NA,17
197,default,block1,tony,ai,0.9,6988,be_annoyed,22,be_annoyed,C,NA,default,28,Yes,NA,Female,english,NA,18
197,default,block1,mia,ai,0.47,24785,reveal,23,reveal,C,NA,default,28,Yes,NA,Female,english,NA,19
197,default,block1,sophia,ai,0.8,7729,pretend,24,pretend,C,NA,default,28,Yes,NA,Female,english,NA,20
197,default,block1,emily,ai,0.91,9595,discover,25,discover,C,NA,default,28,Yes,NA,Female,english,NA,21
197,default,block1,isabella,ai,0.9299999999999999,9037,inform,26,inform,C,NA,default,28,Yes,NA,Female,english,NA,22
197,default,block1,jon,ai,0.89,8888,see,27,see,C,NA,default,28,Yes,NA,Female,english,NA,23
197,default,block1,julian,ai,0.9,7649,demonstrate,28,demonstrate,C,NA,default,28,Yes,NA,Female,english,NA,24
197,default,block1,hat,ai,0.020000000000000018,9920,MC,29,MC,MC,NA,default,28,Yes,NA,Female,english,NA,25
197,default,block1,frank,ai,0.8,12248,suggest,30,suggest,C,NA,default,28,Yes,NA,Female,english,NA,26
197,default,block2,tony,projective,0.16,12142,be_annoyed,32,be_annoyed,C,NA,default,28,Yes,NA,Female,english,NA,27
197,default,block2,charley,projective,0.19,10064,admit,33,admit,C,NA,default,28,Yes,NA,Female,english,NA,28
197,default,block2,kids,projective,0.92,7731,MC,34,MC,MC,NA,default,28,Yes,NA,Female,english,NA,29
197,default,block2,muffins,projective,0.93,7811,MC,35,MC,MC,NA,default,28,Yes,NA,Female,english,NA,30
197,default,block2,grace,projective,0.11,6264,announce,36,announce,C,NA,default,28,Yes,NA,Female,english,NA,31
197,default,block2,josie,projective,0.15,9181,hear,37,hear,C,NA,default,28,Yes,NA,Female,english,NA,32
197,default,block2,ballet,projective,0.92,8260,MC,38,MC,MC,NA,default,28,Yes,NA,Female,english,NA,33
197,default,block2,emma,projective,0.13,8024,say,39,say,C,NA,default,28,Yes,NA,Female,english,NA,34
197,default,block2,mary,projective,0.08,8013,establish,40,establish,C,NA,default,28,Yes,NA,Female,english,NA,35
197,default,block2,mia,projective,0.23,8999,reveal,41,reveal,C,NA,default,28,Yes,NA,Female,english,NA,36
197,default,block2,jon,projective,0.65,7131,see,42,see,C,NA,default,28,Yes,NA,Female,english,NA,37
197,default,block2,zoe,projective,0.19,8330,acknowledge,43,acknowledge,C,NA,default,28,Yes,NA,Female,english,NA,38
197,default,block2,frank,projective,0.21,10044,suggest,44,suggest,C,NA,default,28,Yes,NA,Female,english,NA,39
197,default,block2,owen,projective,0.17,7971,confirm,45,confirm,C,NA,default,28,Yes,NA,Female,english,NA,40
197,default,block2,jayden,projective,0.08,6007,confess,46,confess,C,NA,default,28,Yes,NA,Female,english,NA,41
197,default,block2,josh,projective,0.07,8531,prove,47,prove,C,NA,default,28,Yes,NA,Female,english,NA,42
197,default,block2,emily,projective,0.53,7665,discover,48,discover,C,NA,default,28,Yes,NA,Female,english,NA,43
197,default,block2,julian,projective,0.06,8561,demonstrate,49,demonstrate,C,NA,default,28,Yes,NA,Female,english,NA,44
197,default,block2,garage,projective,0.95,6968,MC,50,MC,MC,NA,default,28,Yes,NA,Female,english,NA,45
197,default,block2,sophia,projective,0.23,7060,pretend,51,pretend,C,NA,default,28,Yes,NA,Female,english,NA,46
197,default,block2,danny,projective,0.66,12273,know,52,know,C,NA,default,28,Yes,NA,Female,english,NA,47
197,default,block2,olivia,projective,0.11,6647,think,53,think,C,NA,default,28,Yes,NA,Female,english,NA,48
197,default,block2,isabella,projective,0.23,6716,inform,54,inform,C,NA,default,28,Yes,NA,Female,english,NA,49
197,default,block2,pizza,projective,0.93,7212,MC,55,MC,MC,NA,default,28,Yes,NA,Female,english,NA,50
197,default,block2,jackson,projective,0.32,13842,be_right,56,be_right,C,NA,default,28,Yes,NA,Female,english,NA,51
197,default,block2,hat,projective,0.94,7695,MC,57,MC,MC,NA,default,28,Yes,NA,Female,english,NA,52
193,default,block1,emily,projective,0.66,39526,announce,5,announce,C,NA,default,29,Yes,It is an awesome study,Male,English,NA,1
193,default,block1,garage,projective,0.99,14175,MC,6,MC,MC,NA,default,29,Yes,It is an awesome study,Male,English,NA,2
193,default,block1,sophia,projective,0.97,50352,discover,7,discover,C,NA,default,29,Yes,It is an awesome study,Male,English,NA,3
193,default,block1,josie,projective,0.93,164230,hear,8,hear,C,NA,default,29,Yes,It is an awesome study,Male,English,NA,4
193,default,block1,jayden,projective,0.05,199838,confirm,9,confirm,C,NA,default,29,Yes,It is an awesome study,Male,English,NA,5
193,default,block1,ballet,projective,0.93,7800,MC,10,MC,MC,NA,default,29,Yes,It is an awesome study,Male,English,NA,6
193,default,block1,mia,projective,0.92,13511,say,11,say,C,NA,default,29,Yes,It is an awesome study,Male,English,NA,7
193,default,block1,jon,projective,0.83,11217,confess,12,confess,C,NA,default,29,Yes,It is an awesome study,Male,English,NA,8
193,default,block1,charley,projective,0.67,30863,think,13,think,C,NA,default,29,Yes,It is an awesome study,Male,English,NA,9
193,default,block1,pizza,projective,0.87,6360,MC,14,MC,MC,NA,default,29,Yes,It is an awesome study,Male,English,NA,10
193,default,block1,muffins,projective,0.98,19704,MC,15,MC,MC,NA,default,29,Yes,It is an awesome study,Male,English,NA,11
193,default,block1,isabella,projective,0.9,32656,see,16,see,C,NA,default,29,Yes,It is an awesome study,Male,English,NA,12
193,default,block1,zoe,projective,0.09,9400,establish,17,establish,C,NA,default,29,Yes,It is an awesome study,Male,English,NA,13
193,default,block1,kids,projective,0.9,4935,MC,18,MC,MC,NA,default,29,Yes,It is an awesome study,Male,English,NA,14
193,default,block1,tony,projective,0.16,17856,be_right,19,be_right,C,NA,default,29,Yes,It is an awesome study,Male,English,NA,15
193,default,block1,mary,projective,0.07,87951,prove,20,prove,C,NA,default,29,Yes,It is an awesome study,Male,English,NA,16
193,default,block1,danny,projective,0.04,10903,suggest,21,suggest,C,NA,default,29,Yes,It is an awesome study,Male,English,NA,17
193,default,block1,frank,projective,0.09,8088,demonstrate,22,demonstrate,C,NA,default,29,Yes,It is an awesome study,Male,English,NA,18
193,default,block1,josh,projective,0.95,10280,pretend,23,pretend,C,NA,default,29,Yes,It is an awesome study,Male,English,NA,19
193,default,block1,hat,projective,0.97,4568,MC,24,MC,MC,NA,default,29,Yes,It is an awesome study,Male,English,NA,20
193,default,block1,julian,projective,0.98,5929,know,25,know,C,NA,default,29,Yes,It is an awesome study,Male,English,NA,21
193,default,block1,grace,projective,0.99,5695,inform,26,inform,C,NA,default,29,Yes,It is an awesome study,Male,English,NA,22
193,default,block1,emma,projective,0.97,6159,reveal,27,reveal,C,NA,default,29,Yes,It is an awesome study,Male,English,NA,23
193,default,block1,owen,projective,0.96,5952,be_annoyed,28,be_annoyed,C,NA,default,29,Yes,It is an awesome study,Male,English,NA,24
193,default,block1,olivia,projective,0.16,12912,acknowledge,29,acknowledge,C,NA,default,29,Yes,It is an awesome study,Male,English,NA,25
193,default,block1,jackson,projective,0.09,6688,admit,30,admit,C,NA,default,29,Yes,It is an awesome study,Male,English,NA,26
193,default,block2,danny,ai,0.94,24775,suggest,32,suggest,C,NA,default,29,Yes,It is an awesome study,Male,English,NA,27
193,default,block2,tony,ai,0.96,161367,be_right,33,be_right,C,NA,default,29,Yes,It is an awesome study,Male,English,NA,28
193,default,block2,mary,ai,0.95,45855,prove,34,prove,C,NA,default,29,Yes,It is an awesome study,Male,English,NA,29
193,default,block2,pizza,ai,0.020000000000000018,16616,MC,35,MC,MC,NA,default,29,Yes,It is an awesome study,Male,English,NA,30
193,default,block2,emily,ai,0.040000000000000036,6312,announce,36,announce,C,NA,default,29,Yes,It is an awesome study,Male,English,NA,31
193,default,block2,frank,ai,0.06000000000000005,7160,demonstrate,37,demonstrate,C,NA,default,29,Yes,It is an awesome study,Male,English,NA,32
193,default,block2,grace,ai,0.06999999999999995,20472,inform,38,inform,C,NA,default,29,Yes,It is an awesome study,Male,English,NA,33
193,default,block2,kids,ai,0.07999999999999996,6688,MC,39,MC,MC,NA,default,29,Yes,It is an awesome study,Male,English,NA,34
193,default,block2,emma,ai,0.06000000000000005,11184,reveal,40,reveal,C,NA,default,29,Yes,It is an awesome study,Male,English,NA,35
193,default,block2,garage,ai,0.050000000000000044,7079,MC,41,MC,MC,NA,default,29,Yes,It is an awesome study,Male,English,NA,36
193,default,block2,josh,ai,0.06000000000000005,31063,pretend,42,pretend,C,NA,default,29,Yes,It is an awesome study,Male,English,NA,37
193,default,block2,hat,ai,0.06000000000000005,5007,MC,43,MC,MC,NA,default,29,Yes,It is an awesome study,Male,English,NA,38
193,default,block2,olivia,ai,0.06000000000000005,6064,acknowledge,44,acknowledge,C,NA,default,29,Yes,It is an awesome study,Male,English,NA,39
193,default,block2,sophia,ai,0.020000000000000018,7336,discover,45,discover,C,NA,default,29,Yes,It is an awesome study,Male,English,NA,40
193,default,block2,owen,ai,0.95,16856,be_annoyed,46,be_annoyed,C,NA,default,29,Yes,It is an awesome study,Male,English,NA,41
193,default,block2,mia,ai,0.97,19584,say,47,say,C,NA,default,29,Yes,It is an awesome study,Male,English,NA,42
193,default,block2,zoe,ai,0.98,12128,establish,48,establish,C,NA,default,29,Yes,It is an awesome study,Male,English,NA,43
193,default,block2,jackson,ai,0.45999999999999996,24199,admit,49,admit,C,NA,default,29,Yes,It is an awesome study,Male,English,NA,44
193,default,block2,jayden,ai,0.97,8225,confirm,50,confirm,C,NA,default,29,Yes,It is an awesome study,Male,English,NA,45
193,default,block2,josie,ai,0.87,10664,hear,51,hear,C,NA,default,29,Yes,It is an awesome study,Male,English,NA,46
193,default,block2,jon,ai,0.9299999999999999,3575,confess,52,confess,C,NA,default,29,Yes,It is an awesome study,Male,English,NA,47
193,default,block2,isabella,ai,0.92,9680,see,53,see,C,NA,default,29,Yes,It is an awesome study,Male,English,NA,48
193,default,block2,julian,ai,0.98,7431,know,54,know,C,NA,default,29,Yes,It is an awesome study,Male,English,NA,49
193,default,block2,charley,ai,0.88,9168,think,55,think,C,NA,default,29,Yes,It is an awesome study,Male,English,NA,50
193,default,block2,muffins,ai,0.010000000000000009,4224,MC,56,MC,MC,NA,default,29,Yes,It is an awesome study,Male,English,NA,51
193,default,block2,ballet,ai,0.030000000000000027,4760,MC,57,MC,MC,NA,default,29,Yes,It is an awesome study,Male,English,NA,52
143,default,block1,mia,projective,0.76,354946,confess,5,confess,C,NA,default,43,Yes,NA,Female,English,NA,1
143,default,block1,emma,projective,0.96,12596,be_annoyed,6,be_annoyed,C,NA,default,43,Yes,NA,Female,English,NA,2
143,default,block1,danny,projective,0.67,12058,confirm,7,confirm,C,NA,default,43,Yes,NA,Female,English,NA,3
143,default,block1,zoe,projective,0.5,11169,think,8,think,C,NA,default,43,Yes,NA,Female,English,NA,4
143,default,block1,josie,projective,0.78,6819,see,9,see,C,NA,default,43,Yes,NA,Female,English,NA,5
143,default,block1,ballet,projective,0.98,4732,MC,10,MC,MC,NA,default,43,Yes,NA,Female,English,NA,6
143,default,block1,mary,projective,0.74,117585,acknowledge,11,acknowledge,C,NA,default,43,Yes,NA,Female,English,NA,7
143,default,block1,jon,projective,0.28,6116,establish,12,establish,C,NA,default,43,Yes,NA,Female,English,NA,8
143,default,block1,tony,projective,0.6,79118,announce,13,announce,C,NA,default,43,Yes,NA,Female,English,NA,9
143,default,block1,charley,projective,0.21,6725,prove,14,prove,C,NA,default,43,Yes,NA,Female,English,NA,10
143,default,block1,hat,projective,0.97,4830,MC,15,MC,MC,NA,default,43,Yes,NA,Female,English,NA,11
143,default,block1,josh,projective,0.42,7151,suggest,16,suggest,C,NA,default,43,Yes,NA,Female,English,NA,12
143,default,block1,julian,projective,0.39,4947,pretend,17,pretend,C,NA,default,43,Yes,NA,Female,English,NA,13
143,default,block1,jayden,projective,0.67,179969,hear,18,hear,C,NA,default,43,Yes,NA,Female,English,NA,14
143,default,block1,sophia,projective,0.69,141686,inform,19,inform,C,NA,default,43,Yes,NA,Female,English,NA,15
143,default,block1,jackson,projective,0.33,64025,be_right,20,be_right,C,NA,default,43,Yes,NA,Female,English,NA,16
143,default,block1,olivia,projective,0.49,7665,say,21,say,C,NA,default,43,Yes,NA,Female,English,NA,17
143,default,block1,frank,projective,0.55,10011,reveal,22,reveal,C,NA,default,43,Yes,NA,Female,English,NA,18
143,default,block1,kids,projective,0.96,7846,MC,23,MC,MC,NA,default,43,Yes,NA,Female,English,NA,19
143,default,block1,muffins,projective,0.95,10103,MC,24,MC,MC,NA,default,43,Yes,NA,Female,English,NA,20
143,default,block1,garage,projective,0.98,7431,MC,25,MC,MC,NA,default,43,Yes,NA,Female,English,NA,21
143,default,block1,owen,projective,0.78,33427,admit,26,admit,C,NA,default,43,Yes,NA,Female,English,NA,22
143,default,block1,pizza,projective,0.97,6232,MC,27,MC,MC,NA,default,43,Yes,NA,Female,English,NA,23
143,default,block1,emily,projective,0.97,6144,know,28,know,C,NA,default,43,Yes,NA,Female,English,NA,24
143,default,block1,grace,projective,0.75,6607,demonstrate,29,demonstrate,C,NA,default,43,Yes,NA,Female,English,NA,25
143,default,block1,isabella,projective,0.71,5320,discover,30,discover,C,NA,default,43,Yes,NA,Female,English,NA,26
143,default,block2,owen,ai,0.8,9768,admit,32,admit,C,NA,default,43,Yes,NA,Female,English,NA,27
143,default,block2,mia,ai,0.65,5967,confess,33,confess,C,NA,default,43,Yes,NA,Female,English,NA,28
143,default,block2,muffins,ai,0.030000000000000027,5762,MC,34,MC,MC,NA,default,43,Yes,NA,Female,English,NA,29
143,default,block2,jayden,ai,0.75,4794,hear,35,hear,C,NA,default,43,Yes,NA,Female,English,NA,30
143,default,block2,sophia,ai,0.76,6708,inform,36,inform,C,NA,default,43,Yes,NA,Female,English,NA,31
143,default,block2,jon,ai,0.79,6538,establish,37,establish,C,NA,default,43,Yes,NA,Female,English,NA,32
143,default,block2,olivia,ai,0.83,7060,say,38,say,C,NA,default,43,Yes,NA,Female,English,NA,33
143,default,block2,zoe,ai,0.6799999999999999,12353,think,39,think,C,NA,default,43,Yes,NA,Female,English,NA,34
143,default,block2,pizza,ai,0.040000000000000036,4285,MC,40,MC,MC,NA,default,43,Yes,NA,Female,English,NA,35
143,default,block2,josh,ai,0.72,4949,suggest,41,suggest,C,NA,default,43,Yes,NA,Female,English,NA,36
143,default,block2,frank,ai,0.65,4937,reveal,42,reveal,C,NA,default,43,Yes,NA,Female,English,NA,37
143,default,block2,garage,ai,0.030000000000000027,4658,MC,43,MC,MC,NA,default,43,Yes,NA,Female,English,NA,38
143,default,block2,emma,ai,0.78,33355,be_annoyed,44,be_annoyed,C,NA,default,43,Yes,NA,Female,English,NA,39
143,default,block2,kids,ai,0.010000000000000009,8882,MC,45,MC,MC,NA,default,43,Yes,NA,Female,English,NA,40
143,default,block2,hat,ai,0,9798,MC,46,MC,MC,NA,default,43,Yes,NA,Female,English,NA,41
143,default,block2,ballet,ai,0.020000000000000018,3594,MC,47,MC,MC,NA,default,43,Yes,NA,Female,English,NA,42
143,default,block2,emily,ai,0.77,4648,know,48,know,C,NA,default,43,Yes,NA,Female,English,NA,43
143,default,block2,jackson,ai,0.73,6960,be_right,49,be_right,C,NA,default,43,Yes,NA,Female,English,NA,44
143,default,block2,julian,ai,0.77,5832,pretend,50,pretend,C,NA,default,43,Yes,NA,Female,English,NA,45
143,default,block2,charley,ai,0.7,9264,prove,51,prove,C,NA,default,43,Yes,NA,Female,English,NA,46
143,default,block2,mary,ai,0.73,4335,acknowledge,52,acknowledge,C,NA,default,43,Yes,NA,Female,English,NA,47
143,default,block2,isabella,ai,0.76,4743,discover,53,discover,C,NA,default,43,Yes,NA,Female,English,NA,48
143,default,block2,grace,ai,0.64,6987,demonstrate,54,demonstrate,C,NA,default,43,Yes,NA,Female,English,NA,49
143,default,block2,josie,ai,0.5700000000000001,10869,see,55,see,C,NA,default,43,Yes,NA,Female,English,NA,50
143,default,block2,danny,ai,0.6799999999999999,10858,confirm,56,confirm,C,NA,default,43,Yes,NA,Female,English,NA,51
143,default,block2,tony,ai,0.6799999999999999,5740,announce,57,announce,C,NA,default,43,Yes,NA,Female,English,NA,52
93,default,block1,josie,projective,0.16,12720,reveal,5,reveal,C,NA,default,22,Yes,NA,Female,English,NA,1
93,default,block1,muffins,projective,0.89,8275,MC,6,MC,MC,NA,default,22,Yes,NA,Female,English,NA,2
93,default,block1,emily,projective,0.43,10549,pretend,7,pretend,C,NA,default,22,Yes,NA,Female,English,NA,3
93,default,block1,mia,projective,0.39,7513,demonstrate,8,demonstrate,C,NA,default,22,Yes,NA,Female,English,NA,4
93,default,block1,kids,projective,0.83,5159,MC,9,MC,MC,NA,default,22,Yes,NA,Female,English,NA,5
93,default,block1,zoe,projective,0.59,7889,discover,10,discover,C,NA,default,22,Yes,NA,Female,English,NA,6
93,default,block1,sophia,projective,0.72,6089,know,11,know,C,NA,default,22,Yes,NA,Female,English,NA,7
93,default,block1,owen,projective,0.34,7830,suggest,12,suggest,C,NA,default,22,Yes,NA,Female,English,NA,8
93,default,block1,pizza,projective,0.85,4528,MC,13,MC,MC,NA,default,22,Yes,NA,Female,English,NA,9
93,default,block1,olivia,projective,0.46,5296,prove,14,prove,C,NA,default,22,Yes,NA,Female,English,NA,10
93,default,block1,jayden,projective,0.55,8838,acknowledge,15,acknowledge,C,NA,default,22,Yes,NA,Female,English,NA,11
93,default,block1,josh,projective,0.56,8608,hear,16,hear,C,NA,default,22,Yes,NA,Female,English,NA,12
93,default,block1,isabella,projective,0.58,7335,say,17,say,C,NA,default,22,Yes,NA,Female,English,NA,13
93,default,block1,grace,projective,0.64,4874,see,18,see,C,NA,default,22,Yes,NA,Female,English,NA,14
93,default,block1,frank,projective,0.34,4509,confirm,19,confirm,C,NA,default,22,Yes,NA,Female,English,NA,15
93,default,block1,ballet,projective,0.94,4816,MC,20,MC,MC,NA,default,22,Yes,NA,Female,English,NA,16
93,default,block1,charley,projective,0.17,6676,think,21,think,C,NA,default,22,Yes,NA,Female,English,NA,17
93,default,block1,julian,projective,0.39,6528,be_right,22,be_right,C,NA,default,22,Yes,NA,Female,English,NA,18
93,default,block1,jon,projective,0.24,4499,establish,23,establish,C,NA,default,22,Yes,NA,Female,English,NA,19
93,default,block1,danny,projective,0.32,4035,confess,24,confess,C,NA,default,22,Yes,NA,Female,English,NA,20
93,default,block1,jackson,projective,0.51,3735,admit,25,admit,C,NA,default,22,Yes,NA,Female,English,NA,21
93,default,block1,hat,projective,0.93,3340,MC,26,MC,MC,NA,default,22,Yes,NA,Female,English,NA,22
93,default,block1,tony,projective,0.5,7220,inform,27,inform,C,NA,default,22,Yes,NA,Female,English,NA,23
93,default,block1,garage,projective,0.89,3510,MC,28,MC,MC,NA,default,22,Yes,NA,Female,English,NA,24
93,default,block1,mary,projective,0.39,4425,announce,29,announce,C,NA,default,22,Yes,NA,Female,English,NA,25
93,default,block1,emma,projective,0.82,6749,be_annoyed,30,be_annoyed,C,NA,default,22,Yes,NA,Female,English,NA,26
93,default,block2,jayden,ai,0.65,7139,acknowledge,32,acknowledge,C,NA,default,22,Yes,NA,Female,English,NA,27
93,default,block2,owen,ai,0.75,6884,suggest,33,suggest,C,NA,default,22,Yes,NA,Female,English,NA,28
93,default,block2,kids,ai,0.06000000000000005,4050,MC,34,MC,MC,NA,default,22,Yes,NA,Female,English,NA,29
93,default,block2,muffins,ai,0.07999999999999996,4812,MC,35,MC,MC,NA,default,22,Yes,NA,Female,English,NA,30
93,default,block2,emma,ai,0.71,6631,be_annoyed,36,be_annoyed,C,NA,default,22,Yes,NA,Female,English,NA,31
93,default,block2,hat,ai,0.050000000000000044,3162,MC,37,MC,MC,NA,default,22,Yes,NA,Female,English,NA,32
93,default,block2,emily,ai,0.62,6424,pretend,38,pretend,C,NA,default,22,Yes,NA,Female,English,NA,33
93,default,block2,garage,ai,0.06999999999999995,2850,MC,39,MC,MC,NA,default,22,Yes,NA,Female,English,NA,34
93,default,block2,ballet,ai,0.010000000000000009,3180,MC,40,MC,MC,NA,default,22,Yes,NA,Female,English,NA,35
93,default,block2,charley,ai,0.75,6945,think,41,think,C,NA,default,22,Yes,NA,Female,English,NA,36
93,default,block2,grace,ai,0.62,5385,see,42,see,C,NA,default,22,Yes,NA,Female,English,NA,37
93,default,block2,jon,ai,0.65,6555,establish,43,establish,C,NA,default,22,Yes,NA,Female,English,NA,38
93,default,block2,danny,ai,0.49,4724,confess,44,confess,C,NA,default,22,Yes,NA,Female,English,NA,39
93,default,block2,pizza,ai,0.050000000000000044,3150,MC,45,MC,MC,NA,default,22,Yes,NA,Female,English,NA,40
93,default,block2,olivia,ai,0.48,6151,prove,46,prove,C,NA,default,22,Yes,NA,Female,English,NA,41
93,default,block2,josh,ai,0.54,5114,hear,47,hear,C,NA,default,22,Yes,NA,Female,English,NA,42
93,default,block2,josie,ai,0.63,5189,reveal,48,reveal,C,NA,default,22,Yes,NA,Female,English,NA,43
93,default,block2,sophia,ai,0.52,6420,know,49,know,C,NA,default,22,Yes,NA,Female,English,NA,44
93,default,block2,julian,ai,0.47,7943,be_right,50,be_right,C,NA,default,22,Yes,NA,Female,English,NA,45
93,default,block2,frank,ai,0.64,4954,confirm,51,confirm,C,NA,default,22,Yes,NA,Female,English,NA,46
93,default,block2,zoe,ai,0.62,3842,discover,52,discover,C,NA,default,22,Yes,NA,Female,English,NA,47
93,default,block2,tony,ai,0.62,4304,inform,53,inform,C,NA,default,22,Yes,NA,Female,English,NA,48
93,default,block2,mia,ai,0.63,3600,demonstrate,54,demonstrate,C,NA,default,22,Yes,NA,Female,English,NA,49
93,default,block2,mary,ai,0.63,4158,announce,55,announce,C,NA,default,22,Yes,NA,Female,English,NA,50
93,default,block2,jackson,ai,0.6599999999999999,4298,admit,56,admit,C,NA,default,22,Yes,NA,Female,English,NA,51
93,default,block2,isabella,ai,0.6699999999999999,4024,say,57,say,C,NA,default,22,Yes,NA,Female,English,NA,52
133,default,block1,frank,projective,1,7568,hear,5,hear,C,NA,default,24,Yes,NA,Male,English,NA,1
133,default,block1,sophia,projective,1,5953,inform,6,inform,C,NA,default,24,Yes,NA,Male,English,NA,2
133,default,block1,emma,projective,1,7659,confess,7,confess,C,NA,default,24,Yes,NA,Male,English,NA,3
133,default,block1,josie,projective,1,3520,establish,8,establish,C,NA,default,24,Yes,NA,Male,English,NA,4
133,default,block1,muffins,projective,1,5653,MC,9,MC,MC,NA,default,24,Yes,NA,Male,English,NA,5
133,default,block1,jon,projective,0.97,6138,know,10,know,C,NA,default,24,Yes,NA,Male,English,NA,6
133,default,block1,pizza,projective,0.94,4645,MC,11,MC,MC,NA,default,24,Yes,NA,Male,English,NA,7
133,default,block1,garage,projective,1,4498,MC,12,MC,MC,NA,default,24,Yes,NA,Male,English,NA,8
133,default,block1,kids,projective,0.96,6046,MC,13,MC,MC,NA,default,24,Yes,NA,Male,English,NA,9
133,default,block1,mia,projective,1,3383,think,14,think,C,NA,default,24,Yes,NA,Male,English,NA,10
133,default,block1,julian,projective,0.97,2371,announce,15,announce,C,NA,default,24,Yes,NA,Male,English,NA,11
133,default,block1,jackson,projective,0.97,1984,say,16,say,C,NA,default,24,Yes,NA,Male,English,NA,12
133,default,block1,mary,projective,0.96,2366,prove,17,prove,C,NA,default,24,Yes,NA,Male,English,NA,13
133,default,block1,hat,projective,0.98,7077,MC,18,MC,MC,NA,default,24,Yes,NA,Male,English,NA,14
133,default,block1,isabella,projective,0.96,6372,reveal,19,reveal,C,NA,default,24,Yes,NA,Male,English,NA,15
133,default,block1,danny,projective,0.01,12578,pretend,20,pretend,C,NA,default,24,Yes,NA,Male,English,NA,16
133,default,block1,grace,projective,0.03,15841,confirm,21,confirm,C,NA,default,24,Yes,NA,Male,English,NA,17
133,default,block1,tony,projective,0.03,3423,demonstrate,22,demonstrate,C,NA,default,24,Yes,NA,Male,English,NA,18
133,default,block1,olivia,projective,0.5,6909,acknowledge,23,acknowledge,C,NA,default,24,Yes,NA,Male,English,NA,19
133,default,block1,zoe,projective,0.02,6629,see,24,see,C,NA,default,24,Yes,NA,Male,English,NA,20
133,default,block1,owen,projective,0.01,4013,suggest,25,suggest,C,NA,default,24,Yes,NA,Male,English,NA,21
133,default,block1,emily,projective,0.98,4641,be_annoyed,26,be_annoyed,C,NA,default,24,Yes,NA,Male,English,NA,22
133,default,block1,ballet,projective,0.99,3917,MC,27,MC,MC,NA,default,24,Yes,NA,Male,English,NA,23
133,default,block1,josh,projective,0.52,5064,be_right,28,be_right,C,NA,default,24,Yes,NA,Male,English,NA,24
133,default,block1,charley,projective,0.97,5926,discover,29,discover,C,NA,default,24,Yes,NA,Male,English,NA,25
133,default,block1,jayden,projective,0.98,6458,admit,30,admit,C,NA,default,24,Yes,NA,Male,English,NA,26
133,default,block2,ballet,ai,0.030000000000000027,6737,MC,32,MC,MC,NA,default,24,Yes,NA,Male,English,NA,27
133,default,block2,hat,ai,0.010000000000000009,2902,MC,33,MC,MC,NA,default,24,Yes,NA,Male,English,NA,28
133,default,block2,danny,ai,0.99,9633,pretend,34,pretend,C,NA,default,24,Yes,NA,Male,English,NA,29
133,default,block2,mary,ai,0.97,7153,prove,35,prove,C,NA,default,24,Yes,NA,Male,English,NA,30
133,default,block2,kids,ai,0.010000000000000009,4530,MC,36,MC,MC,NA,default,24,Yes,NA,Male,English,NA,31
133,default,block2,zoe,ai,0.99,5338,see,37,see,C,NA,default,24,Yes,NA,Male,English,NA,32
133,default,block2,grace,ai,0.98,4488,confirm,38,confirm,C,NA,default,24,Yes,NA,Male,English,NA,33
133,default,block2,jon,ai,0.99,3126,know,39,know,C,NA,default,24,Yes,NA,Male,English,NA,34
133,default,block2,mia,ai,0.98,5002,think,40,think,C,NA,default,24,Yes,NA,Male,English,NA,35
133,default,block2,frank,ai,0.98,3502,hear,41,hear,C,NA,default,24,Yes,NA,Male,English,NA,36
133,default,block2,pizza,ai,0.010000000000000009,3982,MC,42,MC,MC,NA,default,24,Yes,NA,Male,English,NA,37
133,default,block2,garage,ai,0.050000000000000044,2571,MC,43,MC,MC,NA,default,24,Yes,NA,Male,English,NA,38
133,default,block2,sophia,ai,0.9299999999999999,4358,inform,44,inform,C,NA,default,24,Yes,NA,Male,English,NA,39
133,default,block2,tony,ai,1,2852,demonstrate,45,demonstrate,C,NA,default,24,Yes,NA,Male,English,NA,40
133,default,block2,muffins,ai,0.040000000000000036,2224,MC,46,MC,MC,NA,default,24,Yes,NA,Male,English,NA,41
133,default,block2,jayden,ai,0.96,1859,admit,47,admit,C,NA,default,24,Yes,NA,Male,English,NA,42
133,default,block2,josie,ai,0.95,1853,establish,48,establish,C,NA,default,24,Yes,NA,Male,English,NA,43
133,default,block2,josh,ai,0.96,4508,be_right,49,be_right,C,NA,default,24,Yes,NA,Male,English,NA,44
133,default,block2,emily,ai,0.99,2244,be_annoyed,50,be_annoyed,C,NA,default,24,Yes,NA,Male,English,NA,45
133,default,block2,owen,ai,0.99,1856,suggest,51,suggest,C,NA,default,24,Yes,NA,Male,English,NA,46
133,default,block2,jackson,ai,0.98,3926,say,52,say,C,NA,default,24,Yes,NA,Male,English,NA,47
133,default,block2,olivia,ai,0.98,3280,acknowledge,53,acknowledge,C,NA,default,24,Yes,NA,Male,English,NA,48
133,default,block2,julian,ai,0.96,1673,announce,54,announce,C,NA,default,24,Yes,NA,Male,English,NA,49
133,default,block2,isabella,ai,0.96,1584,reveal,55,reveal,C,NA,default,24,Yes,NA,Male,English,NA,50
133,default,block2,emma,ai,0.98,2028,confess,56,confess,C,NA,default,24,Yes,NA,Male,English,NA,51
133,default,block2,charley,ai,0.98,2135,discover,57,discover,C,NA,default,24,Yes,NA,Male,English,NA,52
151,default,block1,garage,projective,1,6798,MC,5,MC,MC,NA,default,39,Yes,I enjoyed the study. Nice!,Male,English,NA,1
151,default,block1,jackson,projective,0.35,13171,confirm,6,confirm,C,NA,default,39,Yes,I enjoyed the study. Nice!,Male,English,NA,2
151,default,block1,sophia,projective,0.2,5941,say,7,say,C,NA,default,39,Yes,I enjoyed the study. Nice!,Male,English,NA,3
151,default,block1,muffins,projective,1,5778,MC,8,MC,MC,NA,default,39,Yes,I enjoyed the study. Nice!,Male,English,NA,4
151,default,block1,frank,projective,0.27,3919,discover,9,discover,C,NA,default,39,Yes,I enjoyed the study. Nice!,Male,English,NA,5
151,default,block1,josh,projective,0.35,5509,reveal,10,reveal,C,NA,default,39,Yes,I enjoyed the study. Nice!,Male,English,NA,6
151,default,block1,emma,projective,0.28,4519,see,11,see,C,NA,default,39,Yes,I enjoyed the study. Nice!,Male,English,NA,7
151,default,block1,isabella,projective,0.2,3338,announce,12,announce,C,NA,default,39,Yes,I enjoyed the study. Nice!,Male,English,NA,8
151,default,block1,danny,projective,0.39,5213,hear,13,hear,C,NA,default,39,Yes,I enjoyed the study. Nice!,Male,English,NA,9
151,default,block1,jon,projective,0.28,2933,pretend,14,pretend,C,NA,default,39,Yes,I enjoyed the study. Nice!,Male,English,NA,10
151,default,block1,charley,projective,0.49,6405,suggest,15,suggest,C,NA,default,39,Yes,I enjoyed the study. Nice!,Male,English,NA,11
151,default,block1,jayden,projective,0.38,3000,inform,16,inform,C,NA,default,39,Yes,I enjoyed the study. Nice!,Male,English,NA,12
151,default,block1,emily,projective,0.45,3507,establish,17,establish,C,NA,default,39,Yes,I enjoyed the study. Nice!,Male,English,NA,13
151,default,block1,josie,projective,0.27,2100,confess,18,confess,C,NA,default,39,Yes,I enjoyed the study. Nice!,Male,English,NA,14
151,default,block1,julian,projective,0,8188,be_right,19,be_right,C,NA,default,39,Yes,I enjoyed the study. Nice!,Male,English,NA,15
151,default,block1,olivia,projective,0.37,6788,prove,20,prove,C,NA,default,39,Yes,I enjoyed the study. Nice!,Male,English,NA,16
151,default,block1,mary,projective,0.29,4147,acknowledge,21,acknowledge,C,NA,default,39,Yes,I enjoyed the study. Nice!,Male,English,NA,17
151,default,block1,owen,projective,0.62,3917,demonstrate,22,demonstrate,C,NA,default,39,Yes,I enjoyed the study. Nice!,Male,English,NA,18
151,default,block1,pizza,projective,1,4468,MC,23,MC,MC,NA,default,39,Yes,I enjoyed the study. Nice!,Male,English,NA,19
151,default,block1,mia,projective,0.34,2861,know,24,know,C,NA,default,39,Yes,I enjoyed the study. Nice!,Male,English,NA,20
151,default,block1,hat,projective,1,6290,MC,25,MC,MC,NA,default,39,Yes,I enjoyed the study. Nice!,Male,English,NA,21
151,default,block1,grace,projective,1,15406,be_annoyed,26,be_annoyed,C,NA,default,39,Yes,I enjoyed the study. Nice!,Male,English,NA,22
151,default,block1,tony,projective,0.34,4849,think,27,think,C,NA,default,39,Yes,I enjoyed the study. Nice!,Male,English,NA,23
151,default,block1,kids,projective,1,3994,MC,28,MC,MC,NA,default,39,Yes,I enjoyed the study. Nice!,Male,English,NA,24
151,default,block1,zoe,projective,0.5,5374,admit,29,admit,C,NA,default,39,Yes,I enjoyed the study. Nice!,Male,English,NA,25
151,default,block1,ballet,projective,1,3434,MC,30,MC,MC,NA,default,39,Yes,I enjoyed the study. Nice!,Male,English,NA,26
151,default,block2,emma,ai,0.76,17616,see,32,see,C,NA,default,39,Yes,I enjoyed the study. Nice!,Male,English,NA,27
151,default,block2,tony,ai,0.72,5031,think,33,think,C,NA,default,39,Yes,I enjoyed the study. Nice!,Male,English,NA,28
151,default,block2,jayden,ai,0.71,3305,inform,34,inform,C,NA,default,39,Yes,I enjoyed the study. Nice!,Male,English,NA,29
151,default,block2,kids,ai,0,4037,MC,35,MC,MC,NA,default,39,Yes,I enjoyed the study. Nice!,Male,English,NA,30
151,default,block2,jackson,ai,0.55,3889,confirm,36,confirm,C,NA,default,39,Yes,I enjoyed the study. Nice!,Male,English,NA,31
151,default,block2,hat,ai,0,4703,MC,37,MC,MC,NA,default,39,Yes,I enjoyed the study. Nice!,Male,English,NA,32
151,default,block2,sophia,ai,0.7,3819,say,38,say,C,NA,default,39,Yes,I enjoyed the study. Nice!,Male,English,NA,33
151,default,block2,julian,ai,0.35,7605,be_right,39,be_right,C,NA,default,39,Yes,I enjoyed the study. Nice!,Male,English,NA,34
151,default,block2,danny,ai,0.65,3406,hear,40,hear,C,NA,default,39,Yes,I enjoyed the study. Nice!,Male,English,NA,35
151,default,block2,frank,ai,0.5800000000000001,5921,discover,41,discover,C,NA,default,39,Yes,I enjoyed the study. Nice!,Male,English,NA,36
151,default,block2,pizza,ai,0,3429,MC,42,MC,MC,NA,default,39,Yes,I enjoyed the study. Nice!,Male,English,NA,37
151,default,block2,isabella,ai,0.6,3290,announce,43,announce,C,NA,default,39,Yes,I enjoyed the study. Nice!,Male,English,NA,38
151,default,block2,emily,ai,0.69,4369,establish,44,establish,C,NA,default,39,Yes,I enjoyed the study. Nice!,Male,English,NA,39
151,default,block2,charley,ai,0.73,4363,suggest,45,suggest,C,NA,default,39,Yes,I enjoyed the study. Nice!,Male,English,NA,40
151,default,block2,owen,ai,0.6699999999999999,3967,demonstrate,46,demonstrate,C,NA,default,39,Yes,I enjoyed the study. Nice!,Male,English,NA,41
151,default,block2,garage,ai,0,4645,MC,47,MC,MC,NA,default,39,Yes,I enjoyed the study. Nice!,Male,English,NA,42
151,default,block2,mia,ai,0.29000000000000004,6980,know,48,know,C,NA,default,39,Yes,I enjoyed the study. Nice!,Male,English,NA,43
151,default,block2,ballet,ai,0,2761,MC,49,MC,MC,NA,default,39,Yes,I enjoyed the study. Nice!,Male,English,NA,44
151,default,block2,josie,ai,0.71,2971,confess,50,confess,C,NA,default,39,Yes,I enjoyed the study. Nice!,Male,English,NA,45
151,default,block2,zoe,ai,0.92,7078,admit,51,admit,C,NA,default,39,Yes,I enjoyed the study. Nice!,Male,English,NA,46
151,default,block2,josh,ai,0.6,3967,reveal,52,reveal,C,NA,default,39,Yes,I enjoyed the study. Nice!,Male,English,NA,47
151,default,block2,muffins,ai,0,7955,MC,53,MC,MC,NA,default,39,Yes,I enjoyed the study. Nice!,Male,English,NA,48
151,default,block2,olivia,ai,0.7,2338,prove,54,prove,C,NA,default,39,Yes,I enjoyed the study. Nice!,Male,English,NA,49
151,default,block2,grace,ai,0.6699999999999999,2255,be_annoyed,55,be_annoyed,C,NA,default,39,Yes,I enjoyed the study. Nice!,Male,English,NA,50
151,default,block2,jon,ai,0.38,3765,pretend,56,pretend,C,NA,default,39,Yes,I enjoyed the study. Nice!,Male,English,NA,51
151,default,block2,mary,ai,0.6599999999999999,2773,acknowledge,57,acknowledge,C,NA,default,39,Yes,I enjoyed the study. Nice!,Male,English,NA,52
177,default,block1,josh,ai,0.97,18806,see,5,see,C,NA,default,64,Yes,NA,Male,English,NA,1
177,default,block1,garage,ai,0.010000000000000009,6808,MC,6,MC,MC,NA,default,64,Yes,NA,Male,English,NA,2
177,default,block1,tony,ai,1,9016,discover,7,discover,C,NA,default,64,Yes,NA,Male,English,NA,3
177,default,block1,zoe,ai,0.18000000000000005,38143,announce,8,announce,C,NA,default,64,Yes,NA,Male,English,NA,4
177,default,block1,jackson,ai,0.97,7033,know,9,know,C,NA,default,64,Yes,NA,Male,English,NA,5
177,default,block1,sophia,ai,0.97,9384,hear,10,hear,C,NA,default,64,Yes,NA,Male,English,NA,6
177,default,block1,jayden,ai,0.97,10375,suggest,11,suggest,C,NA,default,64,Yes,NA,Male,English,NA,7
177,default,block1,olivia,ai,0.98,17375,prove,12,prove,C,NA,default,64,Yes,NA,Male,English,NA,8
177,default,block1,josie,ai,0.98,10135,be_annoyed,13,be_annoyed,C,NA,default,64,Yes,NA,Male,English,NA,9
177,default,block1,charley,ai,1,20792,be_right,14,be_right,C,NA,default,64,Yes,NA,Male,English,NA,10
177,default,block1,hat,ai,0.030000000000000027,6016,MC,15,MC,MC,NA,default,64,Yes,NA,Male,English,NA,11
177,default,block1,jon,ai,0.21999999999999997,10975,establish,16,establish,C,NA,default,64,Yes,NA,Male,English,NA,12
177,default,block1,ballet,ai,0.030000000000000027,5720,MC,17,MC,MC,NA,default,64,Yes,NA,Male,English,NA,13
177,default,block1,isabella,ai,0.99,8783,inform,18,inform,C,NA,default,64,Yes,NA,Male,English,NA,14
177,default,block1,muffins,ai,0.020000000000000018,7536,MC,19,MC,MC,NA,default,64,Yes,NA,Male,English,NA,15
177,default,block1,pizza,ai,0.010000000000000009,5304,MC,20,MC,MC,NA,default,64,Yes,NA,Male,English,NA,16
177,default,block1,emma,ai,0.99,8280,reveal,21,reveal,C,NA,default,64,Yes,NA,Male,English,NA,17
177,default,block1,kids,ai,0.010000000000000009,5488,MC,22,MC,MC,NA,default,64,Yes,NA,Male,English,NA,18
177,default,block1,emily,ai,0.97,9304,acknowledge,23,acknowledge,C,NA,default,64,Yes,NA,Male,English,NA,19
177,default,block1,frank,ai,0.71,11616,demonstrate,24,demonstrate,C,NA,default,64,Yes,NA,Male,English,NA,20
177,default,block1,mia,ai,0.99,9999,confess,25,confess,C,NA,default,64,Yes,NA,Male,English,NA,21
177,default,block1,mary,ai,0.97,6600,admit,26,admit,C,NA,default,64,Yes,NA,Male,English,NA,22
177,default,block1,owen,ai,0.010000000000000009,13911,pretend,27,pretend,C,NA,default,64,Yes,NA,Male,English,NA,23
177,default,block1,julian,ai,1,7735,confirm,28,confirm,C,NA,default,64,Yes,NA,Male,English,NA,24
177,default,block1,danny,ai,0.28,15952,say,29,say,C,NA,default,64,Yes,NA,Male,English,NA,25
177,default,block1,grace,ai,0.19999999999999996,9599,think,30,think,C,NA,default,64,Yes,NA,Male,English,NA,26
177,default,block2,hat,projective,0.99,9447,MC,32,MC,MC,NA,default,64,Yes,NA,Male,English,NA,27
177,default,block2,olivia,projective,0.01,13952,prove,33,prove,C,NA,default,64,Yes,NA,Male,English,NA,28
177,default,block2,pizza,projective,0.97,3560,MC,34,MC,MC,NA,default,64,Yes,NA,Male,English,NA,29
177,default,block2,isabella,projective,0.04,9848,inform,35,inform,C,NA,default,64,Yes,NA,Male,English,NA,30
177,default,block2,josie,projective,0.96,7552,be_annoyed,36,be_annoyed,C,NA,default,64,Yes,NA,Male,English,NA,31
177,default,block2,danny,projective,0.13,10592,say,37,say,C,NA,default,64,Yes,NA,Male,English,NA,32
177,default,block2,jayden,projective,0.04,8960,suggest,38,suggest,C,NA,default,64,Yes,NA,Male,English,NA,33
177,default,block2,mia,projective,0.01,8064,confess,39,confess,C,NA,default,64,Yes,NA,Male,English,NA,34
177,default,block2,jon,projective,0.03,7263,establish,40,establish,C,NA,default,64,Yes,NA,Male,English,NA,35
177,default,block2,julian,projective,0,5904,confirm,41,confirm,C,NA,default,64,Yes,NA,Male,English,NA,36
177,default,block2,owen,projective,0.34,31439,pretend,42,pretend,C,NA,default,64,Yes,NA,Male,English,NA,37
177,default,block2,frank,projective,0.03,5096,demonstrate,43,demonstrate,C,NA,default,64,Yes,NA,Male,English,NA,38
177,default,block2,kids,projective,0.96,5792,MC,44,MC,MC,NA,default,64,Yes,NA,Male,English,NA,39
177,default,block2,mary,projective,0.02,5656,admit,45,admit,C,NA,default,64,Yes,NA,Male,English,NA,40
177,default,block2,sophia,projective,0.01,5576,hear,46,hear,C,NA,default,64,Yes,NA,Male,English,NA,41
177,default,block2,ballet,projective,0.99,5496,MC,47,MC,MC,NA,default,64,Yes,NA,Male,English,NA,42
177,default,block2,josh,projective,0.01,5695,see,48,see,C,NA,default,64,Yes,NA,Male,English,NA,43
177,default,block2,zoe,projective,0.03,5175,announce,49,announce,C,NA,default,64,Yes,NA,Male,English,NA,44
177,default,block2,emily,projective,0,5801,acknowledge,50,acknowledge,C,NA,default,64,Yes,NA,Male,English,NA,45
177,default,block2,muffins,projective,0.98,3615,MC,51,MC,MC,NA,default,64,Yes,NA,Male,English,NA,46
177,default,block2,charley,projective,0.99,7968,be_right,52,be_right,C,NA,default,64,Yes,NA,Male,English,NA,47
177,default,block2,tony,projective,0.02,7905,discover,53,discover,C,NA,default,64,Yes,NA,Male,English,NA,48
177,default,block2,garage,projective,1,7423,MC,54,MC,MC,NA,default,64,Yes,NA,Male,English,NA,49
177,default,block2,jackson,projective,1,6833,know,55,know,C,NA,default,64,Yes,NA,Male,English,NA,50
177,default,block2,grace,projective,0.03,12615,think,56,think,C,NA,default,64,Yes,NA,Male,English,NA,51
177,default,block2,emma,projective,0.02,10272,reveal,57,reveal,C,NA,default,64,Yes,NA,Male,English,NA,52
365,default,block1,frank,projective,0,17974,prove,5,prove,C,NA,default,34,Yes,NA,Male,English,NA,1
365,default,block1,hat,projective,1,7556,MC,6,MC,MC,NA,default,34,Yes,NA,Male,English,NA,2
365,default,block1,danny,projective,1,17912,be_right,7,be_right,C,NA,default,34,Yes,NA,Male,English,NA,3
365,default,block1,mary,projective,0,12038,think,8,think,C,NA,default,34,Yes,NA,Male,English,NA,4
365,default,block1,grace,projective,0,11636,admit,9,admit,C,NA,default,34,Yes,NA,Male,English,NA,5
365,default,block1,pizza,projective,1,6263,MC,10,MC,MC,NA,default,34,Yes,NA,Male,English,NA,6
365,default,block1,garage,projective,1,7132,MC,11,MC,MC,NA,default,34,Yes,NA,Male,English,NA,7
365,default,block1,jayden,projective,0.42,17243,hear,12,hear,C,NA,default,34,Yes,NA,Male,English,NA,8
365,default,block1,zoe,projective,1,18925,reveal,13,reveal,C,NA,default,34,Yes,NA,Male,English,NA,9
365,default,block1,olivia,projective,0.32,13612,acknowledge,14,acknowledge,C,NA,default,34,Yes,NA,Male,English,NA,10
365,default,block1,sophia,projective,1,5654,see,15,see,C,NA,default,34,Yes,NA,Male,English,NA,11
365,default,block1,isabella,projective,1,6875,announce,16,announce,C,NA,default,34,Yes,NA,Male,English,NA,12
365,default,block1,julian,projective,0.35,15750,demonstrate,17,demonstrate,C,NA,default,34,Yes,NA,Male,English,NA,13
365,default,block1,emma,projective,1,8828,discover,18,discover,C,NA,default,34,Yes,NA,Male,English,NA,14
365,default,block1,muffins,projective,1,6768,MC,19,MC,MC,NA,default,34,Yes,NA,Male,English,NA,15
365,default,block1,jackson,projective,1,12547,inform,20,inform,C,NA,default,34,Yes,NA,Male,English,NA,16
365,default,block1,jon,projective,0,10305,say,21,say,C,NA,default,34,Yes,NA,Male,English,NA,17
365,default,block1,kids,projective,1,4129,MC,22,MC,MC,NA,default,34,Yes,NA,Male,English,NA,18
365,default,block1,emily,projective,0.29,19038,pretend,23,pretend,C,NA,default,34,Yes,NA,Male,English,NA,19
365,default,block1,ballet,projective,1,3851,MC,24,MC,MC,NA,default,34,Yes,NA,Male,English,NA,20
365,default,block1,josh,projective,0.26,10891,suggest,25,suggest,C,NA,default,34,Yes,NA,Male,English,NA,21
365,default,block1,charley,projective,0.23,9091,confirm,26,confirm,C,NA,default,34,Yes,NA,Male,English,NA,22
365,default,block1,mia,projective,1,8220,be_annoyed,27,be_annoyed,C,NA,default,34,Yes,NA,Male,English,NA,23
365,default,block1,tony,projective,0.25,7901,confess,28,confess,C,NA,default,34,Yes,NA,Male,English,NA,24
365,default,block1,owen,projective,1,7282,know,29,know,C,NA,default,34,Yes,NA,Male,English,NA,25
365,default,block1,josie,projective,0.26,11411,establish,30,establish,C,NA,default,34,Yes,NA,Male,English,NA,26
365,default,block2,muffins,ai,0,6650,MC,32,MC,MC,NA,default,34,Yes,NA,Male,English,NA,27
365,default,block2,mia,ai,1,30133,be_annoyed,33,be_annoyed,C,NA,default,34,Yes,NA,Male,English,NA,28
365,default,block2,charley,ai,1,18185,confirm,34,confirm,C,NA,default,34,Yes,NA,Male,English,NA,29
365,default,block2,tony,ai,1,7465,confess,35,confess,C,NA,default,34,Yes,NA,Male,English,NA,30
365,default,block2,frank,ai,1,15283,prove,36,prove,C,NA,default,34,Yes,NA,Male,English,NA,31
365,default,block2,grace,ai,1,13081,admit,37,admit,C,NA,default,34,Yes,NA,Male,English,NA,32
365,default,block2,danny,ai,1,6720,be_right,38,be_right,C,NA,default,34,Yes,NA,Male,English,NA,33
365,default,block2,pizza,ai,0,3709,MC,39,MC,MC,NA,default,34,Yes,NA,Male,English,NA,34
365,default,block2,josh,ai,1,4674,suggest,40,suggest,C,NA,default,34,Yes,NA,Male,English,NA,35
365,default,block2,jon,ai,1,6420,say,41,say,C,NA,default,34,Yes,NA,Male,English,NA,36
365,default,block2,owen,ai,1,5817,know,42,know,C,NA,default,34,Yes,NA,Male,English,NA,37
365,default,block2,emma,ai,1,8453,discover,43,discover,C,NA,default,34,Yes,NA,Male,English,NA,38
365,default,block2,josie,ai,1,5795,establish,44,establish,C,NA,default,34,Yes,NA,Male,English,NA,39
365,default,block2,julian,ai,1,5428,demonstrate,45,demonstrate,C,NA,default,34,Yes,NA,Male,English,NA,40
365,default,block2,jackson,ai,1,6947,inform,46,inform,C,NA,default,34,Yes,NA,Male,English,NA,41
365,default,block2,sophia,ai,1,3586,see,47,see,C,NA,default,34,Yes,NA,Male,English,NA,42
365,default,block2,zoe,ai,1,6006,reveal,48,reveal,C,NA,default,34,Yes,NA,Male,English,NA,43
365,default,block2,mary,ai,1,3729,think,49,think,C,NA,default,34,Yes,NA,Male,English,NA,44
365,default,block2,hat,ai,0,3408,MC,50,MC,MC,NA,default,34,Yes,NA,Male,English,NA,45
365,default,block2,jayden,ai,1,5577,hear,51,hear,C,NA,default,34,Yes,NA,Male,English,NA,46
365,default,block2,ballet,ai,0,3196,MC,52,MC,MC,NA,default,34,Yes,NA,Male,English,NA,47
365,default,block2,olivia,ai,1,4208,acknowledge,53,acknowledge,C,NA,default,34,Yes,NA,Male,English,NA,48
365,default,block2,kids,ai,0,3895,MC,54,MC,MC,NA,default,34,Yes,NA,Male,English,NA,49
365,default,block2,isabella,ai,1,6216,announce,55,announce,C,NA,default,34,Yes,NA,Male,English,NA,50
365,default,block2,garage,ai,0,6450,MC,56,MC,MC,NA,default,34,Yes,NA,Male,English,NA,51
365,default,block2,emily,ai,1,9886,pretend,57,pretend,C,NA,default,34,Yes,NA,Male,English,NA,52
87,default,block1,ballet,projective,1,10517,MC,5,MC,MC,NA,default,32,Yes,NA,Male,english,NA,1
87,default,block1,olivia,projective,0.19,10278,confirm,6,confirm,C,NA,default,32,Yes,NA,Male,english,NA,2
87,default,block1,danny,projective,0.5,8967,pretend,7,pretend,C,NA,default,32,Yes,NA,Male,english,NA,3
87,default,block1,charley,projective,0.6,7911,demonstrate,8,demonstrate,C,NA,default,32,Yes,NA,Male,english,NA,4
87,default,block1,julian,projective,0.97,8790,know,9,know,C,NA,default,32,Yes,NA,Male,english,NA,5
87,default,block1,pizza,projective,1,6407,MC,10,MC,MC,NA,default,32,Yes,NA,Male,english,NA,6
87,default,block1,josh,projective,0.98,13493,see,11,see,C,NA,default,32,Yes,NA,Male,english,NA,7
87,default,block1,frank,projective,1,10367,be_right,12,be_right,C,NA,default,32,Yes,NA,Male,english,NA,8
87,default,block1,mia,projective,0.99,14181,discover,13,discover,C,NA,default,32,Yes,NA,Male,english,NA,9
87,default,block1,isabella,projective,0.76,10463,reveal,14,reveal,C,NA,default,32,Yes,NA,Male,english,NA,10
87,default,block1,mary,projective,0.6,9558,admit,15,admit,C,NA,default,32,Yes,NA,Male,english,NA,11
87,default,block1,sophia,projective,0.57,8751,think,16,think,C,NA,default,32,Yes,NA,Male,english,NA,12
87,default,block1,garage,projective,0.99,8047,MC,17,MC,MC,NA,default,32,Yes,NA,Male,english,NA,13
87,default,block1,tony,projective,0.93,7319,acknowledge,18,acknowledge,C,NA,default,32,Yes,NA,Male,english,NA,14
87,default,block1,josie,projective,1,8150,be_annoyed,19,be_annoyed,C,NA,default,32,Yes,NA,Male,english,NA,15
87,default,block1,zoe,projective,0.83,12894,confess,20,confess,C,NA,default,32,Yes,NA,Male,english,NA,16
87,default,block1,muffins,projective,1,6087,MC,21,MC,MC,NA,default,32,Yes,NA,Male,english,NA,17
87,default,block1,jayden,projective,0.53,19925,suggest,22,suggest,C,NA,default,32,Yes,NA,Male,english,NA,18
87,default,block1,owen,projective,0.52,10182,establish,23,establish,C,NA,default,32,Yes,NA,Male,english,NA,19
87,default,block1,jackson,projective,0.93,10222,inform,24,inform,C,NA,default,32,Yes,NA,Male,english,NA,20
87,default,block1,jon,projective,0.56,8151,prove,25,prove,C,NA,default,32,Yes,NA,Male,english,NA,21
87,default,block1,emma,projective,0.91,7958,hear,26,hear,C,NA,default,32,Yes,NA,Male,english,NA,22
87,default,block1,kids,projective,1,6543,MC,27,MC,MC,NA,default,32,Yes,NA,Male,english,NA,23
87,default,block1,emily,projective,0.6,8966,say,28,say,C,NA,default,32,Yes,NA,Male,english,NA,24
87,default,block1,grace,projective,0.64,8031,announce,29,announce,C,NA,default,32,Yes,NA,Male,english,NA,25
87,default,block1,hat,projective,1,41634,MC,30,MC,MC,NA,default,32,Yes,NA,Male,english,NA,26
87,default,block2,emily,ai,0.49,11981,say,32,say,C,NA,default,32,Yes,NA,Male,english,NA,27
87,default,block2,isabella,ai,0.49,8151,reveal,33,reveal,C,NA,default,32,Yes,NA,Male,english,NA,28
87,default,block2,emma,ai,0.43999999999999995,8007,hear,34,hear,C,NA,default,32,Yes,NA,Male,english,NA,29
87,default,block2,jon,ai,0.56,6679,prove,35,prove,C,NA,default,32,Yes,NA,Male,english,NA,30
87,default,block2,hat,ai,0,4735,MC,36,MC,MC,NA,default,32,Yes,NA,Male,english,NA,31
87,default,block2,mia,ai,0.44999999999999996,7639,discover,37,discover,C,NA,default,32,Yes,NA,Male,english,NA,32
87,default,block2,sophia,ai,0.62,15726,think,38,think,C,NA,default,32,Yes,NA,Male,english,NA,33
87,default,block2,garage,ai,0.010000000000000009,5679,MC,39,MC,MC,NA,default,32,Yes,NA,Male,english,NA,34
87,default,block2,frank,ai,0,13094,be_right,40,be_right,C,NA,default,32,Yes,NA,Male,english,NA,35
87,default,block2,danny,ai,0.31000000000000005,8303,pretend,41,pretend,C,NA,default,32,Yes,NA,Male,english,NA,36
87,default,block2,pizza,ai,0,4767,MC,42,MC,MC,NA,default,32,Yes,NA,Male,english,NA,37
87,default,block2,grace,ai,0.4,8407,announce,43,announce,C,NA,default,32,Yes,NA,Male,english,NA,38
87,default,block2,josie,ai,0.56,6911,be_annoyed,44,be_annoyed,C,NA,default,32,Yes,NA,Male,english,NA,39
87,default,block2,zoe,ai,0.48,8166,confess,45,confess,C,NA,default,32,Yes,NA,Male,english,NA,40
87,default,block2,owen,ai,0.47,9606,establish,46,establish,C,NA,default,32,Yes,NA,Male,english,NA,41
87,default,block2,kids,ai,0,4919,MC,47,MC,MC,NA,default,32,Yes,NA,Male,english,NA,42
87,default,block2,julian,ai,0.64,10302,know,48,know,C,NA,default,32,Yes,NA,Male,english,NA,43
87,default,block2,olivia,ai,0.55,24436,confirm,49,confirm,C,NA,default,32,Yes,NA,Male,english,NA,44
87,default,block2,jackson,ai,0.55,17717,inform,50,inform,C,NA,default,32,Yes,NA,Male,english,NA,45
87,default,block2,muffins,ai,0,4319,MC,51,MC,MC,NA,default,32,Yes,NA,Male,english,NA,46
87,default,block2,josh,ai,0.65,7247,see,52,see,C,NA,default,32,Yes,NA,Male,english,NA,47
87,default,block2,jayden,ai,0.56,7535,suggest,53,suggest,C,NA,default,32,Yes,NA,Male,english,NA,48
87,default,block2,ballet,ai,0,7455,MC,54,MC,MC,NA,default,32,Yes,NA,Male,english,NA,49
87,default,block2,tony,ai,0.48,33211,acknowledge,55,acknowledge,C,NA,default,32,Yes,NA,Male,english,NA,50
87,default,block2,mary,ai,0.41000000000000003,7399,admit,56,admit,C,NA,default,32,Yes,NA,Male,english,NA,51
87,default,block2,charley,ai,0.41000000000000003,8703,demonstrate,57,demonstrate,C,NA,default,32,Yes,NA,Male,english,NA,52
274,default,block1,jayden,projective,1,22932,be_annoyed,5,be_annoyed,C,NA,default,30,Yes,NA,Female,English,NA,1
274,default,block1,owen,projective,0.49,74254,pretend,6,pretend,C,NA,default,30,Yes,NA,Female,English,NA,2
274,default,block1,emily,projective,1,19106,acknowledge,7,acknowledge,C,NA,default,30,Yes,NA,Female,English,NA,3
274,default,block1,hat,projective,1,6357,MC,8,MC,MC,NA,default,30,Yes,NA,Female,English,NA,4
274,default,block1,sophia,projective,1,8456,discover,9,discover,C,NA,default,30,Yes,NA,Female,English,NA,5
274,default,block1,olivia,projective,1,8916,know,10,know,C,NA,default,30,Yes,NA,Female,English,NA,6
274,default,block1,mary,projective,1,17064,announce,11,announce,C,NA,default,30,Yes,NA,Female,English,NA,7
274,default,block1,ballet,projective,1,6656,MC,12,MC,MC,NA,default,30,Yes,NA,Female,English,NA,8
274,default,block1,jon,projective,0.52,25410,think,13,think,C,NA,default,30,Yes,NA,Female,English,NA,9
274,default,block1,garage,projective,1,5925,MC,14,MC,MC,NA,default,30,Yes,NA,Female,English,NA,10
274,default,block1,emma,projective,0.59,16291,see,15,see,C,NA,default,30,Yes,NA,Female,English,NA,11
274,default,block1,josh,projective,0.24,18076,demonstrate,16,demonstrate,C,NA,default,30,Yes,NA,Female,English,NA,12
274,default,block1,julian,projective,0.78,322061,hear,17,hear,C,NA,default,30,Yes,NA,Female,English,NA,13
274,default,block1,josie,projective,0.09,17310,be_right,18,be_right,C,NA,default,30,Yes,NA,Female,English,NA,14
274,default,block1,grace,projective,0.69,44933,reveal,19,reveal,C,NA,default,30,Yes,NA,Female,English,NA,15
274,default,block1,kids,projective,1,5652,MC,20,MC,MC,NA,default,30,Yes,NA,Female,English,NA,16
274,default,block1,charley,projective,0.6,12828,confirm,21,confirm,C,NA,default,30,Yes,NA,Female,English,NA,17
274,default,block1,jackson,projective,0.22,10970,establish,22,establish,C,NA,default,30,Yes,NA,Female,English,NA,18
274,default,block1,isabella,projective,0.22,16360,say,23,say,C,NA,default,30,Yes,NA,Female,English,NA,19
274,default,block1,pizza,projective,1,5157,MC,24,MC,MC,NA,default,30,Yes,NA,Female,English,NA,20
274,default,block1,tony,projective,1,9175,admit,25,admit,C,NA,default,30,Yes,NA,Female,English,NA,21
274,default,block1,muffins,projective,1,3437,MC,26,MC,MC,NA,default,30,Yes,NA,Female,English,NA,22
274,default,block1,mia,projective,0.07,41458,prove,27,prove,C,NA,default,30,Yes,NA,Female,English,NA,23
274,default,block1,frank,projective,0,17328,suggest,28,suggest,C,NA,default,30,Yes,NA,Female,English,NA,24
274,default,block1,zoe,projective,1,14263,inform,29,inform,C,NA,default,30,Yes,NA,Female,English,NA,25
274,default,block1,danny,projective,0.57,16125,confess,30,confess,C,NA,default,30,Yes,NA,Female,English,NA,26
274,default,block2,charley,ai,1,30190,confirm,32,confirm,C,NA,default,30,Yes,NA,Female,English,NA,27
274,default,block2,jayden,ai,1,19271,be_annoyed,33,be_annoyed,C,NA,default,30,Yes,NA,Female,English,NA,28
274,default,block2,josh,ai,0.5900000000000001,19246,demonstrate,34,demonstrate,C,NA,default,30,Yes,NA,Female,English,NA,29
274,default,block2,tony,ai,0.38,20713,admit,35,admit,C,NA,default,30,Yes,NA,Female,English,NA,30
274,default,block2,emma,ai,0.76,22720,see,36,see,C,NA,default,30,Yes,NA,Female,English,NA,31
274,default,block2,muffins,ai,0,7875,MC,37,MC,MC,NA,default,30,Yes,NA,Female,English,NA,32
274,default,block2,zoe,ai,0.61,10497,inform,38,inform,C,NA,default,30,Yes,NA,Female,English,NA,33
274,default,block2,jon,ai,1,9208,think,39,think,C,NA,default,30,Yes,NA,Female,English,NA,34
274,default,block2,emily,ai,0.49,14643,acknowledge,40,acknowledge,C,NA,default,30,Yes,NA,Female,English,NA,35
274,default,block2,frank,ai,0.98,169601,suggest,41,suggest,C,NA,default,30,Yes,NA,Female,English,NA,36
274,default,block2,mia,ai,0.37,10232,prove,42,prove,C,NA,default,30,Yes,NA,Female,English,NA,37
274,default,block2,owen,ai,0.43999999999999995,17675,pretend,43,pretend,C,NA,default,30,Yes,NA,Female,English,NA,38
274,default,block2,isabella,ai,0.9299999999999999,9814,say,44,say,C,NA,default,30,Yes,NA,Female,English,NA,39
274,default,block2,garage,ai,0,7030,MC,45,MC,MC,NA,default,30,Yes,NA,Female,English,NA,40
274,default,block2,jackson,ai,0.38,8922,establish,46,establish,C,NA,default,30,Yes,NA,Female,English,NA,41
274,default,block2,danny,ai,0.5700000000000001,14360,confess,47,confess,C,NA,default,30,Yes,NA,Female,English,NA,42
274,default,block2,julian,ai,0.39,9280,hear,48,hear,C,NA,default,30,Yes,NA,Female,English,NA,43
274,default,block2,kids,ai,0,5449,MC,49,MC,MC,NA,default,30,Yes,NA,Female,English,NA,44
274,default,block2,pizza,ai,0,25163,MC,50,MC,MC,NA,default,30,Yes,NA,Female,English,NA,45
274,default,block2,hat,ai,0,9228,MC,51,MC,MC,NA,default,30,Yes,NA,Female,English,NA,46
274,default,block2,ballet,ai,0,6114,MC,52,MC,MC,NA,default,30,Yes,NA,Female,English,NA,47
274,default,block2,josie,ai,0.98,17214,be_right,53,be_right,C,NA,default,30,Yes,NA,Female,English,NA,48
274,default,block2,mary,ai,0.9299999999999999,7018,announce,54,announce,C,NA,default,30,Yes,NA,Female,English,NA,49
274,default,block2,olivia,ai,0.65,87304,know,55,know,C,NA,default,30,Yes,NA,Female,English,NA,50
274,default,block2,sophia,ai,0.94,19862,discover,56,discover,C,NA,default,30,Yes,NA,Female,English,NA,51
274,default,block2,grace,ai,0.36,14790,reveal,57,reveal,C,NA,default,30,Yes,NA,Female,English,NA,52
262,default,block1,josh,projective,1,7859,hear,5,hear,C,NA,default,34,Yes,NA,Female,English,NA,1
262,default,block1,jayden,projective,1,3658,see,6,see,C,NA,default,34,Yes,NA,Female,English,NA,2
262,default,block1,garage,projective,1,2867,MC,7,MC,MC,NA,default,34,Yes,NA,Female,English,NA,3
262,default,block1,owen,projective,0.16,6615,suggest,8,suggest,C,NA,default,34,Yes,NA,Female,English,NA,4
262,default,block1,jon,projective,0.08,4095,confess,9,confess,C,NA,default,34,Yes,NA,Female,English,NA,5
262,default,block1,mary,projective,0.06,4410,say,10,say,C,NA,default,34,Yes,NA,Female,English,NA,6
262,default,block1,muffins,projective,1,4950,MC,11,MC,MC,NA,default,34,Yes,NA,Female,English,NA,7
262,default,block1,mia,projective,0.2,4602,admit,12,admit,C,NA,default,34,Yes,NA,Female,English,NA,8
262,default,block1,charley,projective,0.55,8085,inform,13,inform,C,NA,default,34,Yes,NA,Female,English,NA,9
262,default,block1,frank,projective,0.22,3568,confirm,14,confirm,C,NA,default,34,Yes,NA,Female,English,NA,10
262,default,block1,kids,projective,1,2767,MC,15,MC,MC,NA,default,34,Yes,NA,Female,English,NA,11
262,default,block1,pizza,projective,1,1879,MC,16,MC,MC,NA,default,34,Yes,NA,Female,English,NA,12
262,default,block1,ballet,projective,1,1980,MC,17,MC,MC,NA,default,34,Yes,NA,Female,English,NA,13
262,default,block1,emily,projective,0,3915,prove,18,prove,C,NA,default,34,Yes,NA,Female,English,NA,14
262,default,block1,olivia,projective,0.63,6210,acknowledge,19,acknowledge,C,NA,default,34,Yes,NA,Female,English,NA,15
262,default,block1,tony,projective,0.15,2936,announce,20,announce,C,NA,default,34,Yes,NA,Female,English,NA,16
262,default,block1,grace,projective,0.01,5681,pretend,21,pretend,C,NA,default,34,Yes,NA,Female,English,NA,17
262,default,block1,danny,projective,0.61,3443,discover,22,discover,C,NA,default,34,Yes,NA,Female,English,NA,18
262,default,block1,julian,projective,0.14,3622,establish,23,establish,C,NA,default,34,Yes,NA,Female,English,NA,19
262,default,block1,jackson,projective,0.22,3172,think,24,think,C,NA,default,34,Yes,NA,Female,English,NA,20
262,default,block1,hat,projective,1,2080,MC,25,MC,MC,NA,default,34,Yes,NA,Female,English,NA,21
262,default,block1,emma,projective,0,3588,demonstrate,26,demonstrate,C,NA,default,34,Yes,NA,Female,English,NA,22
262,default,block1,isabella,projective,1,5188,be_annoyed,27,be_annoyed,C,NA,default,34,Yes,NA,Female,English,NA,23
262,default,block1,sophia,projective,1,2766,know,28,know,C,NA,default,34,Yes,NA,Female,English,NA,24
262,default,block1,josie,projective,0.21,2880,reveal,29,reveal,C,NA,default,34,Yes,NA,Female,English,NA,25
262,default,block1,zoe,projective,0.15,6692,be_right,30,be_right,C,NA,default,34,Yes,NA,Female,English,NA,26
262,default,block2,josh,ai,0,7863,hear,32,hear,C,NA,default,34,Yes,NA,Female,English,NA,27
262,default,block2,danny,ai,0.74,5151,discover,33,discover,C,NA,default,34,Yes,NA,Female,English,NA,28
262,default,block2,josie,ai,0.75,7424,reveal,34,reveal,C,NA,default,34,Yes,NA,Female,English,NA,29
262,default,block2,charley,ai,0.81,66240,inform,35,inform,C,NA,default,34,Yes,NA,Female,English,NA,30
262,default,block2,emma,ai,0.84,82788,demonstrate,36,demonstrate,C,NA,default,34,Yes,NA,Female,English,NA,31
262,default,block2,tony,ai,1,2824,announce,37,announce,C,NA,default,34,Yes,NA,Female,English,NA,32
262,default,block2,kids,ai,0,2836,MC,38,MC,MC,NA,default,34,Yes,NA,Female,English,NA,33
262,default,block2,julian,ai,1,3609,establish,39,establish,C,NA,default,34,Yes,NA,Female,English,NA,34
262,default,block2,muffins,ai,0,2262,MC,40,MC,MC,NA,default,34,Yes,NA,Female,English,NA,35
262,default,block2,mary,ai,0.87,4928,say,41,say,C,NA,default,34,Yes,NA,Female,English,NA,36
262,default,block2,ballet,ai,0,2103,MC,42,MC,MC,NA,default,34,Yes,NA,Female,English,NA,37
262,default,block2,garage,ai,0.040000000000000036,3858,MC,43,MC,MC,NA,default,34,Yes,NA,Female,English,NA,38
262,default,block2,emily,ai,0.91,2588,prove,44,prove,C,NA,default,34,Yes,NA,Female,English,NA,39
262,default,block2,grace,ai,0.88,2813,pretend,45,pretend,C,NA,default,34,Yes,NA,Female,English,NA,40
262,default,block2,sophia,ai,0.96,4476,know,46,know,C,NA,default,34,Yes,NA,Female,English,NA,41
262,default,block2,frank,ai,0.99,2846,confirm,47,confirm,C,NA,default,34,Yes,NA,Female,English,NA,42
262,default,block2,zoe,ai,0.99,2611,be_right,48,be_right,C,NA,default,34,Yes,NA,Female,English,NA,43
262,default,block2,mia,ai,0.96,3824,admit,49,admit,C,NA,default,34,Yes,NA,Female,English,NA,44
262,default,block2,jackson,ai,0.86,4140,think,50,think,C,NA,default,34,Yes,NA,Female,English,NA,45
262,default,block2,hat,ai,0,3307,MC,51,MC,MC,NA,default,34,Yes,NA,Female,English,NA,46
262,default,block2,owen,ai,0.87,2528,suggest,52,suggest,C,NA,default,34,Yes,NA,Female,English,NA,47
262,default,block2,isabella,ai,0.88,2295,be_annoyed,53,be_annoyed,C,NA,default,34,Yes,NA,Female,English,NA,48
262,default,block2,jon,ai,1,3150,confess,54,confess,C,NA,default,34,Yes,NA,Female,English,NA,49
262,default,block2,jayden,ai,1,3028,see,55,see,C,NA,default,34,Yes,NA,Female,English,NA,50
262,default,block2,olivia,ai,1,4744,acknowledge,56,acknowledge,C,NA,default,34,Yes,NA,Female,English,NA,51
262,default,block2,pizza,ai,0,1867,MC,57,MC,MC,NA,default,34,Yes,NA,Female,English,NA,52
272,default,block1,frank,projective,0.62,7245,think,5,think,C,NA,default,19,Yes,Sometimes the question was phrased a bit weirdly but it was ok to figure out,Female,English,NA,1
