workerid,proliferate.condition,block,content,question_type,response,rt,short_trigger,slide_number_in_experiment,trigger,trigger_class,catch_trials,subject_information.age,subject_information.american,subject_information.comments,subject_information.gender,subject_information.language,system.Browser,system.OS,system.screenH,system.screenW,time_in_minutes,error
129,default,block1,ballet,projective,0.95,7589,MC,5,MC,MC,[],24,Yes,,Female,English,Chrome,Windows,912,1368,6.2131,
129,default,block1,emily,projective,0.07,8934,confess,6,confess,C,[],24,Yes,,Female,English,Chrome,Windows,912,1368,6.2131,
129,default,block1,tony,projective,0.18,15871,pretend,7,pretend,C,[],24,Yes,,Female,English,Chrome,Windows,912,1368,6.2131,
129,default,block1,hat,projective,0.99,2993,MC,8,MC,MC,[],24,Yes,,Female,English,Chrome,Windows,912,1368,6.2131,
129,default,block1,jackson,projective,0.17,5667,confirm,9,confirm,C,[],24,Yes,,Female,English,Chrome,Windows,912,1368,6.2131,
129,default,block1,olivia,projective,0.08,6048,prove,10,prove,C,[],24,Yes,,Female,English,Chrome,Windows,912,1368,6.2131,
129,default,block1,pizza,projective,0.99,2899,MC,11,MC,MC,[],24,Yes,,Female,English,Chrome,Windows,912,1368,6.2131,
129,default,block1,jayden,projective,0.87,6271,acknowledge,12,acknowledge,C,[],24,Yes,,Female,English,Chrome,Windows,912,1368,6.2131,
129,default,block1,mary,projective,0.01,6762,be_right,13,be_right,C,[],24,Yes,,Female,English,Chrome,Windows,912,1368,6.2131,
129,default,block1,mia,projective,0.61,8368,think,14,think,C,[],24,Yes,,Female,English,Chrome,Windows,912,1368,6.2131,
129,default,block1,emma,projective,0.95,6750,inform,15,inform,C,[],24,Yes,,Female,English,Chrome,Windows,912,1368,6.2131,
129,default,block1,frank,projective,0.49,5023,see,16,see,C,[],24,Yes,,Female,English,Chrome,Windows,912,1368,6.2131,
129,default,block1,josie,projective,0.22,8938,demonstrate,17,demonstrate,C,[],24,Yes,,Female,English,Chrome,Windows,912,1368,6.2131,
129,default,block1,zoe,projective,0.2,11380,suggest,18,suggest,C,[],24,Yes,,Female,English,Chrome,Windows,912,1368,6.2131,
129,default,block1,charley,projective,0.42,11773,say,19,say,C,[],24,Yes,,Female,English,Chrome,Windows,912,1368,6.2131,
129,default,block1,owen,projective,0.35,14490,reveal,20,reveal,C,[],24,Yes,,Female,English,Chrome,Windows,912,1368,6.2131,
129,default,block1,grace,projective,0.43,9432,hear,21,hear,C,[],24,Yes,,Female,English,Chrome,Windows,912,1368,6.2131,
129,default,block1,kids,projective,1,8717,MC,22,MC,MC,[],24,Yes,,Female,English,Chrome,Windows,912,1368,6.2131,
129,default,block1,isabella,projective,0.14,5069,admit,23,admit,C,[],24,Yes,,Female,English,Chrome,Windows,912,1368,6.2131,
129,default,block1,sophia,projective,0.58,7671,establish,24,establish,C,[],24,Yes,,Female,English,Chrome,Windows,912,1368,6.2131,
129,default,block1,garage,projective,0.97,4846,MC,25,MC,MC,[],24,Yes,,Female,English,Chrome,Windows,912,1368,6.2131,
129,default,block1,jon,projective,0.93,6159,be_annoyed,26,be_annoyed,C,[],24,Yes,,Female,English,Chrome,Windows,912,1368,6.2131,
129,default,block1,muffins,projective,0.97,6432,MC,27,MC,MC,[],24,Yes,,Female,English,Chrome,Windows,912,1368,6.2131,
129,default,block1,julian,projective,0.29,6993,announce,28,announce,C,[],24,Yes,,Female,English,Chrome,Windows,912,1368,6.2131,
129,default,block1,josh,projective,0.84,6938,discover,29,discover,C,[],24,Yes,,Female,English,Chrome,Windows,912,1368,6.2131,
129,default,block1,danny,projective,0.96,4979,know,30,know,C,[],24,Yes,,Female,English,Chrome,Windows,912,1368,6.2131,
129,default,block2,mary,ai,0.07,8965,be_right,32,be_right,C,[],24,Yes,,Female,English,Chrome,Windows,912,1368,6.2131,
129,default,block2,jon,ai,0.01,4060,be_annoyed,33,be_annoyed,C,[],24,Yes,,Female,English,Chrome,Windows,912,1368,6.2131,
129,default,block2,emily,ai,0.09,5336,confess,34,confess,C,[],24,Yes,,Female,English,Chrome,Windows,912,1368,6.2131,
129,default,block2,jackson,ai,0.04,4511,confirm,35,confirm,C,[],24,Yes,,Female,English,Chrome,Windows,912,1368,6.2131,
129,default,block2,kids,ai,0.97,3855,MC,36,MC,MC,[],24,Yes,,Female,English,Chrome,Windows,912,1368,6.2131,
129,default,block2,jayden,ai,0.03,4707,acknowledge,37,acknowledge,C,[],24,Yes,,Female,English,Chrome,Windows,912,1368,6.2131,
129,default,block2,emma,ai,0.04,6521,inform,38,inform,C,[],24,Yes,,Female,English,Chrome,Windows,912,1368,6.2131,
129,default,block2,pizza,ai,0.98,2882,MC,39,MC,MC,[],24,Yes,,Female,English,Chrome,Windows,912,1368,6.2131,
129,default,block2,muffins,ai,0.99,3300,MC,40,MC,MC,[],24,Yes,,Female,English,Chrome,Windows,912,1368,6.2131,
129,default,block2,grace,ai,0.02,5456,hear,41,hear,C,[],24,Yes,,Female,English,Chrome,Windows,912,1368,6.2131,
129,default,block2,olivia,ai,0.01,4384,prove,42,prove,C,[],24,Yes,,Female,English,Chrome,Windows,912,1368,6.2131,
129,default,block2,julian,ai,0.03,4178,announce,43,announce,C,[],24,Yes,,Female,English,Chrome,Windows,912,1368,6.2131,
129,default,block2,josh,ai,0.29,6517,discover,44,discover,C,[],24,Yes,,Female,English,Chrome,Windows,912,1368,6.2131,
129,default,block2,josie,ai,0.18,5101,demonstrate,45,demonstrate,C,[],24,Yes,,Female,English,Chrome,Windows,912,1368,6.2131,
129,default,block2,hat,ai,0.99,2599,MC,46,MC,MC,[],24,Yes,,Female,English,Chrome,Windows,912,1368,6.2131,
129,default,block2,garage,ai,0.97,3139,MC,47,MC,MC,[],24,Yes,,Female,English,Chrome,Windows,912,1368,6.2131,
129,default,block2,isabella,ai,0.05,3732,admit,48,admit,C,[],24,Yes,,Female,English,Chrome,Windows,912,1368,6.2131,
129,default,block2,ballet,ai,0.99,2829,MC,49,MC,MC,[],24,Yes,,Female,English,Chrome,Windows,912,1368,6.2131,
129,default,block2,frank,ai,0.07,6606,see,50,see,C,[],24,Yes,,Female,English,Chrome,Windows,912,1368,6.2131,
129,default,block2,zoe,ai,0.08,4950,suggest,51,suggest,C,[],24,Yes,,Female,English,Chrome,Windows,912,1368,6.2131,
129,default,block2,charley,ai,0.06,3444,say,52,say,C,[],24,Yes,,Female,English,Chrome,Windows,912,1368,6.2131,
129,default,block2,owen,ai,0,4631,reveal,53,reveal,C,[],24,Yes,,Female,English,Chrome,Windows,912,1368,6.2131,
129,default,block2,tony,ai,0.01,4099,pretend,54,pretend,C,[],24,Yes,,Female,English,Chrome,Windows,912,1368,6.2131,
129,default,block2,mia,ai,0.02,3555,think,55,think,C,[],24,Yes,,Female,English,Chrome,Windows,912,1368,6.2131,
129,default,block2,sophia,ai,0.02,4072,establish,56,establish,C,[],24,Yes,,Female,English,Chrome,Windows,912,1368,6.2131,
129,default,block2,danny,ai,0.03,3454,know,57,know,C,[],24,Yes,,Female,English,Chrome,Windows,912,1368,6.2131,
207,default,block1,frank,ai,0,20197,discover,5,discover,C,[],25,Yes,N/A,Male,English,Chrome,Linux,768,1366,9.834,
207,default,block1,grace,ai,0,17288,confirm,6,confirm,C,[],25,Yes,N/A,Male,English,Chrome,Linux,768,1366,9.834,
207,default,block1,olivia,ai,0,12663,acknowledge,7,acknowledge,C,[],25,Yes,N/A,Male,English,Chrome,Linux,768,1366,9.834,
207,default,block1,charley,ai,0,10925,see,8,see,C,[],25,Yes,N/A,Male,English,Chrome,Linux,768,1366,9.834,
207,default,block1,jackson,ai,0,7936,inform,9,inform,C,[],25,Yes,N/A,Male,English,Chrome,Linux,768,1366,9.834,
207,default,block1,danny,ai,0,11167,pretend,10,pretend,C,[],25,Yes,N/A,Male,English,Chrome,Linux,768,1366,9.834,
207,default,block1,pizza,ai,0.96,9718,MC,11,MC,MC,[],25,Yes,N/A,Male,English,Chrome,Linux,768,1366,9.834,
207,default,block1,emma,ai,0.03,7159,announce,12,announce,C,[],25,Yes,N/A,Male,English,Chrome,Linux,768,1366,9.834,
207,default,block1,muffins,ai,0.98,7117,MC,13,MC,MC,[],25,Yes,N/A,Male,English,Chrome,Linux,768,1366,9.834,
207,default,block1,garage,ai,0.96,27925,MC,14,MC,MC,[],25,Yes,N/A,Male,English,Chrome,Linux,768,1366,9.834,
207,default,block1,sophia,ai,0.01,6324,prove,15,prove,C,[],25,Yes,N/A,Male,English,Chrome,Linux,768,1366,9.834,
207,default,block1,emily,ai,0,7205,be_right,16,be_right,C,[],25,Yes,N/A,Male,English,Chrome,Linux,768,1366,9.834,
207,default,block1,zoe,ai,0.02,6950,confess,17,confess,C,[],25,Yes,N/A,Male,English,Chrome,Linux,768,1366,9.834,
207,default,block1,jon,ai,0.04,7565,know,18,know,C,[],25,Yes,N/A,Male,English,Chrome,Linux,768,1366,9.834,
207,default,block1,owen,ai,0.02,4988,say,19,say,C,[],25,Yes,N/A,Male,English,Chrome,Linux,768,1366,9.834,
207,default,block1,mary,ai,0,6403,be_annoyed,20,be_annoyed,C,[],25,Yes,N/A,Male,English,Chrome,Linux,768,1366,9.834,
207,default,block1,jayden,ai,0.01,5097,hear,21,hear,C,[],25,Yes,N/A,Male,English,Chrome,Linux,768,1366,9.834,
207,default,block1,julian,ai,0,5468,reveal,22,reveal,C,[],25,Yes,N/A,Male,English,Chrome,Linux,768,1366,9.834,
207,default,block1,josh,ai,0,11787,suggest,23,suggest,C,[],25,Yes,N/A,Male,English,Chrome,Linux,768,1366,9.834,
207,default,block1,isabella,ai,0,5306,think,24,think,C,[],25,Yes,N/A,Male,English,Chrome,Linux,768,1366,9.834,
207,default,block1,tony,ai,0.02,4991,admit,25,admit,C,[],25,Yes,N/A,Male,English,Chrome,Linux,768,1366,9.834,
207,default,block1,josie,ai,0.01,5047,establish,26,establish,C,[],25,Yes,N/A,Male,English,Chrome,Linux,768,1366,9.834,
207,default,block1,mia,ai,0,6844,demonstrate,27,demonstrate,C,[],25,Yes,N/A,Male,English,Chrome,Linux,768,1366,9.834,
207,default,block1,hat,ai,1,4418,MC,28,MC,MC,[],25,Yes,N/A,Male,English,Chrome,Linux,768,1366,9.834,
207,default,block1,ballet,ai,0.98,4052,MC,29,MC,MC,[],25,Yes,N/A,Male,English,Chrome,Linux,768,1366,9.834,
207,default,block1,kids,ai,0.98,4575,MC,30,MC,MC,[],25,Yes,N/A,Male,English,Chrome,Linux,768,1366,9.834,
207,default,block2,charley,projective,0.02,12357,see,32,see,C,[],25,Yes,N/A,Male,English,Chrome,Linux,768,1366,9.834,
207,default,block2,jayden,projective,0.02,4377,hear,33,hear,C,[],25,Yes,N/A,Male,English,Chrome,Linux,768,1366,9.834,
207,default,block2,emma,projective,0.03,6757,announce,34,announce,C,[],25,Yes,N/A,Male,English,Chrome,Linux,768,1366,9.834,
207,default,block2,hat,projective,0.98,5646,MC,35,MC,MC,[],25,Yes,N/A,Male,English,Chrome,Linux,768,1366,9.834,
207,default,block2,emily,projective,0.01,95211,be_right,36,be_right,C,[],25,Yes,N/A,Male,English,Chrome,Linux,768,1366,9.834,
207,default,block2,olivia,projective,0.03,9636,acknowledge,37,acknowledge,C,[],25,Yes,N/A,Male,English,Chrome,Linux,768,1366,9.834,
207,default,block2,owen,projective,0,4778,say,38,say,C,[],25,Yes,N/A,Male,English,Chrome,Linux,768,1366,9.834,
207,default,block2,mary,projective,0.02,11937,be_annoyed,39,be_annoyed,C,[],25,Yes,N/A,Male,English,Chrome,Linux,768,1366,9.834,
207,default,block2,josh,projective,0.02,4638,suggest,40,suggest,C,[],25,Yes,N/A,Male,English,Chrome,Linux,768,1366,9.834,
207,default,block2,julian,projective,0.03,3678,reveal,41,reveal,C,[],25,Yes,N/A,Male,English,Chrome,Linux,768,1366,9.834,
207,default,block2,pizza,projective,0.97,3336,MC,42,MC,MC,[],25,Yes,N/A,Male,English,Chrome,Linux,768,1366,9.834,
207,default,block2,frank,projective,0.01,5769,discover,43,discover,C,[],25,Yes,N/A,Male,English,Chrome,Linux,768,1366,9.834,
207,default,block2,jon,projective,0.03,3969,know,44,know,C,[],25,Yes,N/A,Male,English,Chrome,Linux,768,1366,9.834,
207,default,block2,tony,projective,0.01,2398,admit,45,admit,C,[],25,Yes,N/A,Male,English,Chrome,Linux,768,1366,9.834,
207,default,block2,ballet,projective,0.98,6097,MC,46,MC,MC,[],25,Yes,N/A,Male,English,Chrome,Linux,768,1366,9.834,
207,default,block2,grace,projective,0,4529,confirm,47,confirm,C,[],25,Yes,N/A,Male,English,Chrome,Linux,768,1366,9.834,
207,default,block2,zoe,projective,0.01,3588,confess,48,confess,C,[],25,Yes,N/A,Male,English,Chrome,Linux,768,1366,9.834,
207,default,block2,muffins,projective,0.98,2963,MC,49,MC,MC,[],25,Yes,N/A,Male,English,Chrome,Linux,768,1366,9.834,
207,default,block2,kids,projective,0.98,5699,MC,50,MC,MC,[],25,Yes,N/A,Male,English,Chrome,Linux,768,1366,9.834,
207,default,block2,isabella,projective,0.01,4768,think,51,think,C,[],25,Yes,N/A,Male,English,Chrome,Linux,768,1366,9.834,
207,default,block2,sophia,projective,0.03,46235,prove,52,prove,C,[],25,Yes,N/A,Male,English,Chrome,Linux,768,1366,9.834,
207,default,block2,mia,projective,0.02,8620,demonstrate,53,demonstrate,C,[],25,Yes,N/A,Male,English,Chrome,Linux,768,1366,9.834,
207,default,block2,josie,projective,0.04,2900,establish,54,establish,C,[],25,Yes,N/A,Male,English,Chrome,Linux,768,1366,9.834,
207,default,block2,danny,projective,0,19355,pretend,55,pretend,C,[],25,Yes,N/A,Male,English,Chrome,Linux,768,1366,9.834,
207,default,block2,garage,projective,0.98,5219,MC,56,MC,MC,[],25,Yes,N/A,Male,English,Chrome,Linux,768,1366,9.834,
207,default,block2,jackson,projective,0.01,3089,inform,57,inform,C,[],25,Yes,N/A,Male,English,Chrome,Linux,768,1366,9.834,
353,default,block1,mary,projective,0.79,9275,hear,5,hear,C,[],47,Yes,,Female,english,Chrome,Windows,720,1280,6.591116666666666,
353,default,block1,jayden,projective,0.74,11602,acknowledge,6,acknowledge,C,[],47,Yes,,Female,english,Chrome,Windows,720,1280,6.591116666666666,
353,default,block1,tony,projective,0.72,5991,discover,7,discover,C,[],47,Yes,,Female,english,Chrome,Windows,720,1280,6.591116666666666,
353,default,block1,charley,projective,0.8,7085,announce,8,announce,C,[],47,Yes,,Female,english,Chrome,Windows,720,1280,6.591116666666666,
353,default,block1,pizza,projective,0.96,5981,MC,9,MC,MC,[],47,Yes,,Female,english,Chrome,Windows,720,1280,6.591116666666666,
353,default,block1,mia,projective,0.52,9386,prove,10,prove,C,[],47,Yes,,Female,english,Chrome,Windows,720,1280,6.591116666666666,
353,default,block1,jon,projective,0.87,9740,inform,11,inform,C,[],47,Yes,,Female,english,Chrome,Windows,720,1280,6.591116666666666,
353,default,block1,frank,projective,0.78,7177,say,12,say,C,[],47,Yes,,Female,english,Chrome,Windows,720,1280,6.591116666666666,
353,default,block1,isabella,projective,0.46,9819,confirm,13,confirm,C,[],47,Yes,,Female,english,Chrome,Windows,720,1280,6.591116666666666,
353,default,block1,muffins,projective,0.98,3964,MC,14,MC,MC,[],47,Yes,,Female,english,Chrome,Windows,720,1280,6.591116666666666,
353,default,block1,julian,projective,0.62,9255,admit,15,admit,C,[],47,Yes,,Female,english,Chrome,Windows,720,1280,6.591116666666666,
353,default,block1,emma,projective,0.21,11434,pretend,16,pretend,C,[],47,Yes,,Female,english,Chrome,Windows,720,1280,6.591116666666666,
353,default,block1,garage,projective,0.98,4662,MC,17,MC,MC,[],47,Yes,,Female,english,Chrome,Windows,720,1280,6.591116666666666,
353,default,block1,josh,projective,0.73,5676,reveal,18,reveal,C,[],47,Yes,,Female,english,Chrome,Windows,720,1280,6.591116666666666,
353,default,block1,kids,projective,0.97,5342,MC,19,MC,MC,[],47,Yes,,Female,english,Chrome,Windows,720,1280,6.591116666666666,
353,default,block1,emily,projective,0.48,4653,demonstrate,20,demonstrate,C,[],47,Yes,,Female,english,Chrome,Windows,720,1280,6.591116666666666,
353,default,block1,hat,projective,0.91,3912,MC,21,MC,MC,[],47,Yes,,Female,english,Chrome,Windows,720,1280,6.591116666666666,
353,default,block1,danny,projective,0.18,9073,think,22,think,C,[],47,Yes,,Female,english,Chrome,Windows,720,1280,6.591116666666666,
353,default,block1,sophia,projective,0.18,5417,suggest,23,suggest,C,[],47,Yes,,Female,english,Chrome,Windows,720,1280,6.591116666666666,
353,default,block1,josie,projective,0.11,8311,be_right,24,be_right,C,[],47,Yes,,Female,english,Chrome,Windows,720,1280,6.591116666666666,
353,default,block1,jackson,projective,0.47,6964,see,25,see,C,[],47,Yes,,Female,english,Chrome,Windows,720,1280,6.591116666666666,
353,default,block1,owen,projective,0.76,5645,know,26,know,C,[],47,Yes,,Female,english,Chrome,Windows,720,1280,6.591116666666666,
353,default,block1,ballet,projective,0.93,4450,MC,27,MC,MC,[],47,Yes,,Female,english,Chrome,Windows,720,1280,6.591116666666666,
353,default,block1,grace,projective,0.25,5969,confess,28,confess,C,[],47,Yes,,Female,english,Chrome,Windows,720,1280,6.591116666666666,
353,default,block1,zoe,projective,0.28,9538,establish,29,establish,C,[],47,Yes,,Female,english,Chrome,Windows,720,1280,6.591116666666666,
353,default,block1,olivia,projective,0.9,7450,be_annoyed,30,be_annoyed,C,[],47,Yes,,Female,english,Chrome,Windows,720,1280,6.591116666666666,
353,default,block2,jon,ai,0.05,13885,inform,32,inform,C,[],47,Yes,,Female,english,Chrome,Windows,720,1280,6.591116666666666,
353,default,block2,ballet,ai,0.94,5473,MC,33,MC,MC,[],47,Yes,,Female,english,Chrome,Windows,720,1280,6.591116666666666,
353,default,block2,danny,ai,0.1,8038,think,34,think,C,[],47,Yes,,Female,english,Chrome,Windows,720,1280,6.591116666666666,
353,default,block2,sophia,ai,0.14,7773,suggest,35,suggest,C,[],47,Yes,,Female,english,Chrome,Windows,720,1280,6.591116666666666,
353,default,block2,frank,ai,0.1,4981,say,36,say,C,[],47,Yes,,Female,english,Chrome,Windows,720,1280,6.591116666666666,
353,default,block2,josie,ai,0.1,5580,be_right,37,be_right,C,[],47,Yes,,Female,english,Chrome,Windows,720,1280,6.591116666666666,
353,default,block2,garage,ai,0.94,4936,MC,38,MC,MC,[],47,Yes,,Female,english,Chrome,Windows,720,1280,6.591116666666666,
353,default,block2,josh,ai,0.11,4845,reveal,39,reveal,C,[],47,Yes,,Female,english,Chrome,Windows,720,1280,6.591116666666666,
353,default,block2,zoe,ai,0.13,5067,establish,40,establish,C,[],47,Yes,,Female,english,Chrome,Windows,720,1280,6.591116666666666,
353,default,block2,hat,ai,0.97,3994,MC,41,MC,MC,[],47,Yes,,Female,english,Chrome,Windows,720,1280,6.591116666666666,
353,default,block2,emma,ai,0.09,5483,pretend,42,pretend,C,[],47,Yes,,Female,english,Chrome,Windows,720,1280,6.591116666666666,
353,default,block2,tony,ai,0.1,7744,discover,43,discover,C,[],47,Yes,,Female,english,Chrome,Windows,720,1280,6.591116666666666,
353,default,block2,isabella,ai,0.12,4155,confirm,44,confirm,C,[],47,Yes,,Female,english,Chrome,Windows,720,1280,6.591116666666666,
353,default,block2,mia,ai,0.09,5534,prove,45,prove,C,[],47,Yes,,Female,english,Chrome,Windows,720,1280,6.591116666666666,
353,default,block2,jayden,ai,0.1,5362,acknowledge,46,acknowledge,C,[],47,Yes,,Female,english,Chrome,Windows,720,1280,6.591116666666666,
353,default,block2,jackson,ai,0.06,5067,see,47,see,C,[],47,Yes,,Female,english,Chrome,Windows,720,1280,6.591116666666666,
353,default,block2,julian,ai,0.09,3293,admit,48,admit,C,[],47,Yes,,Female,english,Chrome,Windows,720,1280,6.591116666666666,
353,default,block2,muffins,ai,0.98,4291,MC,49,MC,MC,[],47,Yes,,Female,english,Chrome,Windows,720,1280,6.591116666666666,
353,default,block2,mary,ai,0.05,3573,hear,50,hear,C,[],47,Yes,,Female,english,Chrome,Windows,720,1280,6.591116666666666,
353,default,block2,charley,ai,0.07,5292,announce,51,announce,C,[],47,Yes,,Female,english,Chrome,Windows,720,1280,6.591116666666666,
353,default,block2,grace,ai,0.05,3718,confess,52,confess,C,[],47,Yes,,Female,english,Chrome,Windows,720,1280,6.591116666666666,
353,default,block2,kids,ai,0.97,5065,MC,53,MC,MC,[],47,Yes,,Female,english,Chrome,Windows,720,1280,6.591116666666666,
353,default,block2,owen,ai,0.04,4651,know,54,know,C,[],47,Yes,,Female,english,Chrome,Windows,720,1280,6.591116666666666,
353,default,block2,pizza,ai,0.97,3669,MC,55,MC,MC,[],47,Yes,,Female,english,Chrome,Windows,720,1280,6.591116666666666,
353,default,block2,olivia,ai,0.1,3617,be_annoyed,56,be_annoyed,C,[],47,Yes,,Female,english,Chrome,Windows,720,1280,6.591116666666666,
353,default,block2,emily,ai,0.08,4114,demonstrate,57,demonstrate,C,[],47,Yes,,Female,english,Chrome,Windows,720,1280,6.591116666666666,
273,default,block1,ballet,ai,0.98,6430,MC,5,MC,MC,[],22,Yes,The second half was much more difficult since there was a lack of context to the rest of the conversation. I reread the conversations in my head and for some it sounded as though the statements were true when there was a lack of context.,Male,English,Chrome,Windows,1080,1920,7.294633333333333,
273,default,block1,danny,ai,0,5169,confess,6,confess,C,[],22,Yes,The second half was much more difficult since there was a lack of context to the rest of the conversation. I reread the conversations in my head and for some it sounded as though the statements were true when there was a lack of context.,Male,English,Chrome,Windows,1080,1920,7.294633333333333,
273,default,block1,emma,ai,0,8408,know,7,know,C,[],22,Yes,The second half was much more difficult since there was a lack of context to the rest of the conversation. I reread the conversations in my head and for some it sounded as though the statements were true when there was a lack of context.,Male,English,Chrome,Windows,1080,1920,7.294633333333333,
273,default,block1,jon,ai,0,15277,prove,8,prove,C,[],22,Yes,The second half was much more difficult since there was a lack of context to the rest of the conversation. I reread the conversations in my head and for some it sounded as though the statements were true when there was a lack of context.,Male,English,Chrome,Windows,1080,1920,7.294633333333333,
273,default,block1,pizza,ai,1,21629,MC,9,MC,MC,[],22,Yes,The second half was much more difficult since there was a lack of context to the rest of the conversation. I reread the conversations in my head and for some it sounded as though the statements were true when there was a lack of context.,Male,English,Chrome,Windows,1080,1920,7.294633333333333,
273,default,block1,josie,ai,0,4701,be_right,10,be_right,C,[],22,Yes,The second half was much more difficult since there was a lack of context to the rest of the conversation. I reread the conversations in my head and for some it sounded as though the statements were true when there was a lack of context.,Male,English,Chrome,Windows,1080,1920,7.294633333333333,
273,default,block1,hat,ai,1,2639,MC,11,MC,MC,[],22,Yes,The second half was much more difficult since there was a lack of context to the rest of the conversation. I reread the conversations in my head and for some it sounded as though the statements were true when there was a lack of context.,Male,English,Chrome,Windows,1080,1920,7.294633333333333,
273,default,block1,isabella,ai,0,6232,discover,12,discover,C,[],22,Yes,The second half was much more difficult since there was a lack of context to the rest of the conversation. I reread the conversations in my head and for some it sounded as though the statements were true when there was a lack of context.,Male,English,Chrome,Windows,1080,1920,7.294633333333333,
273,default,block1,mary,ai,0.01,5183,demonstrate,13,demonstrate,C,[],22,Yes,The second half was much more difficult since there was a lack of context to the rest of the conversation. I reread the conversations in my head and for some it sounded as though the statements were true when there was a lack of context.,Male,English,Chrome,Windows,1080,1920,7.294633333333333,
273,default,block1,olivia,ai,0,13591,confirm,14,confirm,C,[],22,Yes,The second half was much more difficult since there was a lack of context to the rest of the conversation. I reread the conversations in my head and for some it sounded as though the statements were true when there was a lack of context.,Male,English,Chrome,Windows,1080,1920,7.294633333333333,
273,default,block1,frank,ai,0,6827,inform,15,inform,C,[],22,Yes,The second half was much more difficult since there was a lack of context to the rest of the conversation. I reread the conversations in my head and for some it sounded as though the statements were true when there was a lack of context.,Male,English,Chrome,Windows,1080,1920,7.294633333333333,
273,default,block1,muffins,ai,0.99,4215,MC,16,MC,MC,[],22,Yes,The second half was much more difficult since there was a lack of context to the rest of the conversation. I reread the conversations in my head and for some it sounded as though the statements were true when there was a lack of context.,Male,English,Chrome,Windows,1080,1920,7.294633333333333,
273,default,block1,emily,ai,0,4168,be_annoyed,17,be_annoyed,C,[],22,Yes,The second half was much more difficult since there was a lack of context to the rest of the conversation. I reread the conversations in my head and for some it sounded as though the statements were true when there was a lack of context.,Male,English,Chrome,Windows,1080,1920,7.294633333333333,
273,default,block1,kids,ai,1,6130,MC,18,MC,MC,[],22,Yes,The second half was much more difficult since there was a lack of context to the rest of the conversation. I reread the conversations in my head and for some it sounded as though the statements were true when there was a lack of context.,Male,English,Chrome,Windows,1080,1920,7.294633333333333,
273,default,block1,josh,ai,0,5144,hear,19,hear,C,[],22,Yes,The second half was much more difficult since there was a lack of context to the rest of the conversation. I reread the conversations in my head and for some it sounded as though the statements were true when there was a lack of context.,Male,English,Chrome,Windows,1080,1920,7.294633333333333,
273,default,block1,sophia,ai,0,6527,suggest,20,suggest,C,[],22,Yes,The second half was much more difficult since there was a lack of context to the rest of the conversation. I reread the conversations in my head and for some it sounded as though the statements were true when there was a lack of context.,Male,English,Chrome,Windows,1080,1920,7.294633333333333,
273,default,block1,owen,ai,0,9454,admit,21,admit,C,[],22,Yes,The second half was much more difficult since there was a lack of context to the rest of the conversation. I reread the conversations in my head and for some it sounded as though the statements were true when there was a lack of context.,Male,English,Chrome,Windows,1080,1920,7.294633333333333,
273,default,block1,garage,ai,1,2265,MC,22,MC,MC,[],22,Yes,The second half was much more difficult since there was a lack of context to the rest of the conversation. I reread the conversations in my head and for some it sounded as though the statements were true when there was a lack of context.,Male,English,Chrome,Windows,1080,1920,7.294633333333333,
273,default,block1,jayden,ai,0,3264,establish,23,establish,C,[],22,Yes,The second half was much more difficult since there was a lack of context to the rest of the conversation. I reread the conversations in my head and for some it sounded as though the statements were true when there was a lack of context.,Male,English,Chrome,Windows,1080,1920,7.294633333333333,
273,default,block1,jackson,ai,0,1839,reveal,24,reveal,C,[],22,Yes,The second half was much more difficult since there was a lack of context to the rest of the conversation. I reread the conversations in my head and for some it sounded as though the statements were true when there was a lack of context.,Male,English,Chrome,Windows,1080,1920,7.294633333333333,
273,default,block1,grace,ai,0,2446,announce,25,announce,C,[],22,Yes,The second half was much more difficult since there was a lack of context to the rest of the conversation. I reread the conversations in my head and for some it sounded as though the statements were true when there was a lack of context.,Male,English,Chrome,Windows,1080,1920,7.294633333333333,
273,default,block1,julian,ai,0,2261,acknowledge,26,acknowledge,C,[],22,Yes,The second half was much more difficult since there was a lack of context to the rest of the conversation. I reread the conversations in my head and for some it sounded as though the statements were true when there was a lack of context.,Male,English,Chrome,Windows,1080,1920,7.294633333333333,
273,default,block1,mia,ai,0,2123,pretend,27,pretend,C,[],22,Yes,The second half was much more difficult since there was a lack of context to the rest of the conversation. I reread the conversations in my head and for some it sounded as though the statements were true when there was a lack of context.,Male,English,Chrome,Windows,1080,1920,7.294633333333333,
273,default,block1,charley,ai,0,2699,see,28,see,C,[],22,Yes,The second half was much more difficult since there was a lack of context to the rest of the conversation. I reread the conversations in my head and for some it sounded as though the statements were true when there was a lack of context.,Male,English,Chrome,Windows,1080,1920,7.294633333333333,
273,default,block1,tony,ai,0,2974,think,29,think,C,[],22,Yes,The second half was much more difficult since there was a lack of context to the rest of the conversation. I reread the conversations in my head and for some it sounded as though the statements were true when there was a lack of context.,Male,English,Chrome,Windows,1080,1920,7.294633333333333,
273,default,block1,zoe,ai,0,2211,say,30,say,C,[],22,Yes,The second half was much more difficult since there was a lack of context to the rest of the conversation. I reread the conversations in my head and for some it sounded as though the statements were true when there was a lack of context.,Male,English,Chrome,Windows,1080,1920,7.294633333333333,
273,default,block2,jackson,projective,0,17227,reveal,32,reveal,C,[],22,Yes,The second half was much more difficult since there was a lack of context to the rest of the conversation. I reread the conversations in my head and for some it sounded as though the statements were true when there was a lack of context.,Male,English,Chrome,Windows,1080,1920,7.294633333333333,
273,default,block2,isabella,projective,0,15057,discover,33,discover,C,[],22,Yes,The second half was much more difficult since there was a lack of context to the rest of the conversation. I reread the conversations in my head and for some it sounded as though the statements were true when there was a lack of context.,Male,English,Chrome,Windows,1080,1920,7.294633333333333,
273,default,block2,julian,projective,0,8782,acknowledge,34,acknowledge,C,[],22,Yes,The second half was much more difficult since there was a lack of context to the rest of the conversation. I reread the conversations in my head and for some it sounded as though the statements were true when there was a lack of context.,Male,English,Chrome,Windows,1080,1920,7.294633333333333,
273,default,block2,frank,projective,0,5680,inform,35,inform,C,[],22,Yes,The second half was much more difficult since there was a lack of context to the rest of the conversation. I reread the conversations in my head and for some it sounded as though the statements were true when there was a lack of context.,Male,English,Chrome,Windows,1080,1920,7.294633333333333,
273,default,block2,garage,projective,1,2915,MC,36,MC,MC,[],22,Yes,The second half was much more difficult since there was a lack of context to the rest of the conversation. I reread the conversations in my head and for some it sounded as though the statements were true when there was a lack of context.,Male,English,Chrome,Windows,1080,1920,7.294633333333333,
273,default,block2,charley,projective,0,2694,see,37,see,C,[],22,Yes,The second half was much more difficult since there was a lack of context to the rest of the conversation. I reread the conversations in my head and for some it sounded as though the statements were true when there was a lack of context.,Male,English,Chrome,Windows,1080,1920,7.294633333333333,
273,default,block2,josh,projective,0,1465,hear,38,hear,C,[],22,Yes,The second half was much more difficult since there was a lack of context to the rest of the conversation. I reread the conversations in my head and for some it sounded as though the statements were true when there was a lack of context.,Male,English,Chrome,Windows,1080,1920,7.294633333333333,
273,default,block2,emma,projective,0,2735,know,39,know,C,[],22,Yes,The second half was much more difficult since there was a lack of context to the rest of the conversation. I reread the conversations in my head and for some it sounded as though the statements were true when there was a lack of context.,Male,English,Chrome,Windows,1080,1920,7.294633333333333,
273,default,block2,emily,projective,1,14723,be_annoyed,40,be_annoyed,C,[],22,Yes,The second half was much more difficult since there was a lack of context to the rest of the conversation. I reread the conversations in my head and for some it sounded as though the statements were true when there was a lack of context.,Male,English,Chrome,Windows,1080,1920,7.294633333333333,
273,default,block2,hat,projective,1,3550,MC,41,MC,MC,[],22,Yes,The second half was much more difficult since there was a lack of context to the rest of the conversation. I reread the conversations in my head and for some it sounded as though the statements were true when there was a lack of context.,Male,English,Chrome,Windows,1080,1920,7.294633333333333,
273,default,block2,josie,projective,1,6490,be_right,42,be_right,C,[],22,Yes,The second half was much more difficult since there was a lack of context to the rest of the conversation. I reread the conversations in my head and for some it sounded as though the statements were true when there was a lack of context.,Male,English,Chrome,Windows,1080,1920,7.294633333333333,
273,default,block2,jon,projective,0,9726,prove,43,prove,C,[],22,Yes,The second half was much more difficult since there was a lack of context to the rest of the conversation. I reread the conversations in my head and for some it sounded as though the statements were true when there was a lack of context.,Male,English,Chrome,Windows,1080,1920,7.294633333333333,
273,default,block2,tony,projective,1,5902,think,44,think,C,[],22,Yes,The second half was much more difficult since there was a lack of context to the rest of the conversation. I reread the conversations in my head and for some it sounded as though the statements were true when there was a lack of context.,Male,English,Chrome,Windows,1080,1920,7.294633333333333,
273,default,block2,mary,projective,0.01,15128,demonstrate,45,demonstrate,C,[],22,Yes,The second half was much more difficult since there was a lack of context to the rest of the conversation. I reread the conversations in my head and for some it sounded as though the statements were true when there was a lack of context.,Male,English,Chrome,Windows,1080,1920,7.294633333333333,
273,default,block2,ballet,projective,1,3065,MC,46,MC,MC,[],22,Yes,The second half was much more difficult since there was a lack of context to the rest of the conversation. I reread the conversations in my head and for some it sounded as though the statements were true when there was a lack of context.,Male,English,Chrome,Windows,1080,1920,7.294633333333333,
273,default,block2,kids,projective,1,4050,MC,47,MC,MC,[],22,Yes,The second half was much more difficult since there was a lack of context to the rest of the conversation. I reread the conversations in my head and for some it sounded as though the statements were true when there was a lack of context.,Male,English,Chrome,Windows,1080,1920,7.294633333333333,
273,default,block2,danny,projective,0.01,4549,confess,48,confess,C,[],22,Yes,The second half was much more difficult since there was a lack of context to the rest of the conversation. I reread the conversations in my head and for some it sounded as though the statements were true when there was a lack of context.,Male,English,Chrome,Windows,1080,1920,7.294633333333333,
273,default,block2,sophia,projective,0.01,9204,suggest,49,suggest,C,[],22,Yes,The second half was much more difficult since there was a lack of context to the rest of the conversation. I reread the conversations in my head and for some it sounded as though the statements were true when there was a lack of context.,Male,English,Chrome,Windows,1080,1920,7.294633333333333,
273,default,block2,olivia,projective,0,1547,confirm,50,confirm,C,[],22,Yes,The second half was much more difficult since there was a lack of context to the rest of the conversation. I reread the conversations in my head and for some it sounded as though the statements were true when there was a lack of context.,Male,English,Chrome,Windows,1080,1920,7.294633333333333,
273,default,block2,owen,projective,0,5763,admit,51,admit,C,[],22,Yes,The second half was much more difficult since there was a lack of context to the rest of the conversation. I reread the conversations in my head and for some it sounded as though the statements were true when there was a lack of context.,Male,English,Chrome,Windows,1080,1920,7.294633333333333,
273,default,block2,zoe,projective,0.01,6420,say,52,say,C,[],22,Yes,The second half was much more difficult since there was a lack of context to the rest of the conversation. I reread the conversations in my head and for some it sounded as though the statements were true when there was a lack of context.,Male,English,Chrome,Windows,1080,1920,7.294633333333333,
273,default,block2,pizza,projective,1,1900,MC,53,MC,MC,[],22,Yes,The second half was much more difficult since there was a lack of context to the rest of the conversation. I reread the conversations in my head and for some it sounded as though the statements were true when there was a lack of context.,Male,English,Chrome,Windows,1080,1920,7.294633333333333,
273,default,block2,mia,projective,0,4281,pretend,54,pretend,C,[],22,Yes,The second half was much more difficult since there was a lack of context to the rest of the conversation. I reread the conversations in my head and for some it sounded as though the statements were true when there was a lack of context.,Male,English,Chrome,Windows,1080,1920,7.294633333333333,
273,default,block2,jayden,projective,0,9542,establish,55,establish,C,[],22,Yes,The second half was much more difficult since there was a lack of context to the rest of the conversation. I reread the conversations in my head and for some it sounded as though the statements were true when there was a lack of context.,Male,English,Chrome,Windows,1080,1920,7.294633333333333,
273,default,block2,muffins,projective,1,1601,MC,56,MC,MC,[],22,Yes,The second half was much more difficult since there was a lack of context to the rest of the conversation. I reread the conversations in my head and for some it sounded as though the statements were true when there was a lack of context.,Male,English,Chrome,Windows,1080,1920,7.294633333333333,
273,default,block2,grace,projective,0.03,1659,announce,57,announce,C,[],22,Yes,The second half was much more difficult since there was a lack of context to the rest of the conversation. I reread the conversations in my head and for some it sounded as though the statements were true when there was a lack of context.,Male,English,Chrome,Windows,1080,1920,7.294633333333333,
48,default,block1,charley,projective,1,12251,reveal,5,reveal,C,[],23,Yes,,Male,English,Firefox,Windows,1080,1920,18.965883333333338,
48,default,block1,garage,projective,1,6169,MC,6,MC,MC,[],23,Yes,,Male,English,Firefox,Windows,1080,1920,18.965883333333338,
48,default,block1,muffins,projective,1,4033,MC,7,MC,MC,[],23,Yes,,Male,English,Firefox,Windows,1080,1920,18.965883333333338,
48,default,block1,hat,projective,1,3510,MC,8,MC,MC,[],23,Yes,,Male,English,Firefox,Windows,1080,1920,18.965883333333338,
48,default,block1,danny,projective,1,6047,see,9,see,C,[],23,Yes,,Male,English,Firefox,Windows,1080,1920,18.965883333333338,
48,default,block1,grace,projective,1,8637,know,10,know,C,[],23,Yes,,Male,English,Firefox,Windows,1080,1920,18.965883333333338,
48,default,block1,jon,projective,1,10032,admit,11,admit,C,[],23,Yes,,Male,English,Firefox,Windows,1080,1920,18.965883333333338,
48,default,block1,mia,projective,0.01,8912,prove,12,prove,C,[],23,Yes,,Male,English,Firefox,Windows,1080,1920,18.965883333333338,
48,default,block1,mary,projective,0.64,77127,acknowledge,13,acknowledge,C,[],23,Yes,,Male,English,Firefox,Windows,1080,1920,18.965883333333338,
48,default,block1,emily,projective,1,7655,announce,14,announce,C,[],23,Yes,,Male,English,Firefox,Windows,1080,1920,18.965883333333338,
48,default,block1,josie,projective,0.13,10085,establish,15,establish,C,[],23,Yes,,Male,English,Firefox,Windows,1080,1920,18.965883333333338,
48,default,block1,zoe,projective,0.85,11075,confess,16,confess,C,[],23,Yes,,Male,English,Firefox,Windows,1080,1920,18.965883333333338,
48,default,block1,emma,projective,0,5642,suggest,17,suggest,C,[],23,Yes,,Male,English,Firefox,Windows,1080,1920,18.965883333333338,
48,default,block1,isabella,projective,0,12096,pretend,18,pretend,C,[],23,Yes,,Male,English,Firefox,Windows,1080,1920,18.965883333333338,
48,default,block1,tony,projective,0,20715,confirm,19,confirm,C,[],23,Yes,,Male,English,Firefox,Windows,1080,1920,18.965883333333338,
48,default,block1,olivia,projective,0.5,27389,be_right,20,be_right,C,[],23,Yes,,Male,English,Firefox,Windows,1080,1920,18.965883333333338,
48,default,block1,kids,projective,1,5464,MC,21,MC,MC,[],23,Yes,,Male,English,Firefox,Windows,1080,1920,18.965883333333338,
48,default,block1,owen,projective,1,7595,discover,22,discover,C,[],23,Yes,,Male,English,Firefox,Windows,1080,1920,18.965883333333338,
48,default,block1,ballet,projective,1,4493,MC,23,MC,MC,[],23,Yes,,Male,English,Firefox,Windows,1080,1920,18.965883333333338,
48,default,block1,frank,projective,1,125113,hear,24,hear,C,[],23,Yes,,Male,English,Firefox,Windows,1080,1920,18.965883333333338,
48,default,block1,jackson,projective,0,22877,demonstrate,25,demonstrate,C,[],23,Yes,,Male,English,Firefox,Windows,1080,1920,18.965883333333338,
48,default,block1,julian,projective,1,38887,inform,26,inform,C,[],23,Yes,,Male,English,Firefox,Windows,1080,1920,18.965883333333338,
48,default,block1,jayden,projective,0.36,11678,think,27,think,C,[],23,Yes,,Male,English,Firefox,Windows,1080,1920,18.965883333333338,
48,default,block1,josh,projective,1,120857,be_annoyed,28,be_annoyed,C,[],23,Yes,,Male,English,Firefox,Windows,1080,1920,18.965883333333338,
48,default,block1,sophia,projective,0.74,7255,say,29,say,C,[],23,Yes,,Male,English,Firefox,Windows,1080,1920,18.965883333333338,
48,default,block1,pizza,projective,1,3161,MC,30,MC,MC,[],23,Yes,,Male,English,Firefox,Windows,1080,1920,18.965883333333338,
48,default,block2,owen,ai,1,6799,discover,32,discover,C,[],23,Yes,,Male,English,Firefox,Windows,1080,1920,18.965883333333338,
48,default,block2,mia,ai,1,5325,prove,33,prove,C,[],23,Yes,,Male,English,Firefox,Windows,1080,1920,18.965883333333338,
48,default,block2,zoe,ai,1,5064,confess,34,confess,C,[],23,Yes,,Male,English,Firefox,Windows,1080,1920,18.965883333333338,
48,default,block2,frank,ai,1,3520,hear,35,hear,C,[],23,Yes,,Male,English,Firefox,Windows,1080,1920,18.965883333333338,
48,default,block2,emma,ai,1,6187,suggest,36,suggest,C,[],23,Yes,,Male,English,Firefox,Windows,1080,1920,18.965883333333338,
48,default,block2,danny,ai,0.3,7739,see,37,see,C,[],23,Yes,,Male,English,Firefox,Windows,1080,1920,18.965883333333338,
48,default,block2,ballet,ai,1,2839,MC,38,MC,MC,[],23,Yes,,Male,English,Firefox,Windows,1080,1920,18.965883333333338,
48,default,block2,julian,ai,0.24,4448,inform,39,inform,C,[],23,Yes,,Male,English,Firefox,Windows,1080,1920,18.965883333333338,
48,default,block2,kids,ai,1,4511,MC,40,MC,MC,[],23,Yes,,Male,English,Firefox,Windows,1080,1920,18.965883333333338,
48,default,block2,grace,ai,0,8239,know,41,know,C,[],23,Yes,,Male,English,Firefox,Windows,1080,1920,18.965883333333338,
48,default,block2,mary,ai,0,3997,acknowledge,42,acknowledge,C,[],23,Yes,,Male,English,Firefox,Windows,1080,1920,18.965883333333338,
48,default,block2,hat,ai,1,2253,MC,43,MC,MC,[],23,Yes,,Male,English,Firefox,Windows,1080,1920,18.965883333333338,
48,default,block2,josh,ai,0.12,6519,be_annoyed,44,be_annoyed,C,[],23,Yes,,Male,English,Firefox,Windows,1080,1920,18.965883333333338,
48,default,block2,charley,ai,0,7109,reveal,45,reveal,C,[],23,Yes,,Male,English,Firefox,Windows,1080,1920,18.965883333333338,
48,default,block2,pizza,ai,1,2116,MC,46,MC,MC,[],23,Yes,,Male,English,Firefox,Windows,1080,1920,18.965883333333338,
48,default,block2,muffins,ai,1,2590,MC,47,MC,MC,[],23,Yes,,Male,English,Firefox,Windows,1080,1920,18.965883333333338,
48,default,block2,jackson,ai,0,16497,demonstrate,48,demonstrate,C,[],23,Yes,,Male,English,Firefox,Windows,1080,1920,18.965883333333338,
48,default,block2,isabella,ai,0,55999,pretend,49,pretend,C,[],23,Yes,,Male,English,Firefox,Windows,1080,1920,18.965883333333338,
48,default,block2,jayden,ai,1,46768,think,50,think,C,[],23,Yes,,Male,English,Firefox,Windows,1080,1920,18.965883333333338,
48,default,block2,olivia,ai,0,24451,be_right,51,be_right,C,[],23,Yes,,Male,English,Firefox,Windows,1080,1920,18.965883333333338,
48,default,block2,tony,ai,0.7,132726,confirm,52,confirm,C,[],23,Yes,,Male,English,Firefox,Windows,1080,1920,18.965883333333338,
48,default,block2,sophia,ai,0,3781,say,53,say,C,[],23,Yes,,Male,English,Firefox,Windows,1080,1920,18.965883333333338,
48,default,block2,jon,ai,0,2861,admit,54,admit,C,[],23,Yes,,Male,English,Firefox,Windows,1080,1920,18.965883333333338,
48,default,block2,emily,ai,0,3330,announce,55,announce,C,[],23,Yes,,Male,English,Firefox,Windows,1080,1920,18.965883333333338,
48,default,block2,garage,ai,1,128219,MC,56,MC,MC,[],23,Yes,,Male,English,Firefox,Windows,1080,1920,18.965883333333338,
48,default,block2,josie,ai,0.48,7751,establish,57,establish,C,[],23,Yes,,Male,English,Firefox,Windows,1080,1920,18.965883333333338,
197,default,block1,kids,ai,0.99,15819,MC,5,MC,MC,[],28,Yes,,Female,english,Chrome,Windows,864,1536,9.4647,
197,default,block1,olivia,ai,0.14,10734,think,6,think,C,[],28,Yes,,Female,english,Chrome,Windows,864,1536,9.4647,
197,default,block1,charley,ai,0.09,8606,admit,7,admit,C,[],28,Yes,,Female,english,Chrome,Windows,864,1536,9.4647,
197,default,block1,danny,ai,0.09,9061,know,8,know,C,[],28,Yes,,Female,english,Chrome,Windows,864,1536,9.4647,
197,default,block1,owen,ai,0.49,15400,confirm,9,confirm,C,[],28,Yes,,Female,english,Chrome,Windows,864,1536,9.4647,
197,default,block1,mary,ai,0.09,11184,establish,10,establish,C,[],28,Yes,,Female,english,Chrome,Windows,864,1536,9.4647,
197,default,block1,grace,ai,0.1,9696,announce,11,announce,C,[],28,Yes,,Female,english,Chrome,Windows,864,1536,9.4647,
197,default,block1,pizza,ai,0.99,6727,MC,12,MC,MC,[],28,Yes,,Female,english,Chrome,Windows,864,1536,9.4647,
197,default,block1,ballet,ai,0.98,6169,MC,13,MC,MC,[],28,Yes,,Female,english,Chrome,Windows,864,1536,9.4647,
197,default,block1,jackson,ai,0.84,11532,be_right,14,be_right,C,[],28,Yes,,Female,english,Chrome,Windows,864,1536,9.4647,
197,default,block1,josie,ai,0.15,8198,hear,15,hear,C,[],28,Yes,,Female,english,Chrome,Windows,864,1536,9.4647,
197,default,block1,jayden,ai,0.09,9097,confess,16,confess,C,[],28,Yes,,Female,english,Chrome,Windows,864,1536,9.4647,
197,default,block1,muffins,ai,0.99,6655,MC,17,MC,MC,[],28,Yes,,Female,english,Chrome,Windows,864,1536,9.4647,
197,default,block1,emma,ai,0.11,6634,say,18,say,C,[],28,Yes,,Female,english,Chrome,Windows,864,1536,9.4647,
197,default,block1,zoe,ai,0.08,8201,acknowledge,19,acknowledge,C,[],28,Yes,,Female,english,Chrome,Windows,864,1536,9.4647,
197,default,block1,josh,ai,0.26,8206,prove,20,prove,C,[],28,Yes,,Female,english,Chrome,Windows,864,1536,9.4647,
197,default,block1,garage,ai,0.99,8162,MC,21,MC,MC,[],28,Yes,,Female,english,Chrome,Windows,864,1536,9.4647,
197,default,block1,tony,ai,0.1,6988,be_annoyed,22,be_annoyed,C,[],28,Yes,,Female,english,Chrome,Windows,864,1536,9.4647,
197,default,block1,mia,ai,0.53,24785,reveal,23,reveal,C,[],28,Yes,,Female,english,Chrome,Windows,864,1536,9.4647,
197,default,block1,sophia,ai,0.2,7729,pretend,24,pretend,C,[],28,Yes,,Female,english,Chrome,Windows,864,1536,9.4647,
197,default,block1,emily,ai,0.09,9595,discover,25,discover,C,[],28,Yes,,Female,english,Chrome,Windows,864,1536,9.4647,
197,default,block1,isabella,ai,0.07,9037,inform,26,inform,C,[],28,Yes,,Female,english,Chrome,Windows,864,1536,9.4647,
197,default,block1,jon,ai,0.11,8888,see,27,see,C,[],28,Yes,,Female,english,Chrome,Windows,864,1536,9.4647,
197,default,block1,julian,ai,0.1,7649,demonstrate,28,demonstrate,C,[],28,Yes,,Female,english,Chrome,Windows,864,1536,9.4647,
197,default,block1,hat,ai,0.98,9920,MC,29,MC,MC,[],28,Yes,,Female,english,Chrome,Windows,864,1536,9.4647,
197,default,block1,frank,ai,0.2,12248,suggest,30,suggest,C,[],28,Yes,,Female,english,Chrome,Windows,864,1536,9.4647,
197,default,block2,tony,projective,0.16,12142,be_annoyed,32,be_annoyed,C,[],28,Yes,,Female,english,Chrome,Windows,864,1536,9.4647,
197,default,block2,charley,projective,0.19,10064,admit,33,admit,C,[],28,Yes,,Female,english,Chrome,Windows,864,1536,9.4647,
197,default,block2,kids,projective,0.92,7731,MC,34,MC,MC,[],28,Yes,,Female,english,Chrome,Windows,864,1536,9.4647,
197,default,block2,muffins,projective,0.93,7811,MC,35,MC,MC,[],28,Yes,,Female,english,Chrome,Windows,864,1536,9.4647,
197,default,block2,grace,projective,0.11,6264,announce,36,announce,C,[],28,Yes,,Female,english,Chrome,Windows,864,1536,9.4647,
197,default,block2,josie,projective,0.15,9181,hear,37,hear,C,[],28,Yes,,Female,english,Chrome,Windows,864,1536,9.4647,
197,default,block2,ballet,projective,0.92,8260,MC,38,MC,MC,[],28,Yes,,Female,english,Chrome,Windows,864,1536,9.4647,
197,default,block2,emma,projective,0.13,8024,say,39,say,C,[],28,Yes,,Female,english,Chrome,Windows,864,1536,9.4647,
197,default,block2,mary,projective,0.08,8013,establish,40,establish,C,[],28,Yes,,Female,english,Chrome,Windows,864,1536,9.4647,
197,default,block2,mia,projective,0.23,8999,reveal,41,reveal,C,[],28,Yes,,Female,english,Chrome,Windows,864,1536,9.4647,
197,default,block2,jon,projective,0.65,7131,see,42,see,C,[],28,Yes,,Female,english,Chrome,Windows,864,1536,9.4647,
197,default,block2,zoe,projective,0.19,8330,acknowledge,43,acknowledge,C,[],28,Yes,,Female,english,Chrome,Windows,864,1536,9.4647,
197,default,block2,frank,projective,0.21,10044,suggest,44,suggest,C,[],28,Yes,,Female,english,Chrome,Windows,864,1536,9.4647,
197,default,block2,owen,projective,0.17,7971,confirm,45,confirm,C,[],28,Yes,,Female,english,Chrome,Windows,864,1536,9.4647,
197,default,block2,jayden,projective,0.08,6007,confess,46,confess,C,[],28,Yes,,Female,english,Chrome,Windows,864,1536,9.4647,
197,default,block2,josh,projective,0.07,8531,prove,47,prove,C,[],28,Yes,,Female,english,Chrome,Windows,864,1536,9.4647,
197,default,block2,emily,projective,0.53,7665,discover,48,discover,C,[],28,Yes,,Female,english,Chrome,Windows,864,1536,9.4647,
197,default,block2,julian,projective,0.06,8561,demonstrate,49,demonstrate,C,[],28,Yes,,Female,english,Chrome,Windows,864,1536,9.4647,
197,default,block2,garage,projective,0.95,6968,MC,50,MC,MC,[],28,Yes,,Female,english,Chrome,Windows,864,1536,9.4647,
197,default,block2,sophia,projective,0.23,7060,pretend,51,pretend,C,[],28,Yes,,Female,english,Chrome,Windows,864,1536,9.4647,
197,default,block2,danny,projective,0.66,12273,know,52,know,C,[],28,Yes,,Female,english,Chrome,Windows,864,1536,9.4647,
197,default,block2,olivia,projective,0.11,6647,think,53,think,C,[],28,Yes,,Female,english,Chrome,Windows,864,1536,9.4647,
197,default,block2,isabella,projective,0.23,6716,inform,54,inform,C,[],28,Yes,,Female,english,Chrome,Windows,864,1536,9.4647,
197,default,block2,pizza,projective,0.93,7212,MC,55,MC,MC,[],28,Yes,,Female,english,Chrome,Windows,864,1536,9.4647,
197,default,block2,jackson,projective,0.32,13842,be_right,56,be_right,C,[],28,Yes,,Female,english,Chrome,Windows,864,1536,9.4647,
197,default,block2,hat,projective,0.94,7695,MC,57,MC,MC,[],28,Yes,,Female,english,Chrome,Windows,864,1536,9.4647,
193,default,block1,emily,projective,0.66,39526,announce,5,announce,C,[],29,Yes,It is an awesome study,Male,English,Chrome,Windows,900,1600,23.761283333333335,
193,default,block1,garage,projective,0.99,14175,MC,6,MC,MC,[],29,Yes,It is an awesome study,Male,English,Chrome,Windows,900,1600,23.761283333333335,
193,default,block1,sophia,projective,0.97,50352,discover,7,discover,C,[],29,Yes,It is an awesome study,Male,English,Chrome,Windows,900,1600,23.761283333333335,
193,default,block1,josie,projective,0.93,164230,hear,8,hear,C,[],29,Yes,It is an awesome study,Male,English,Chrome,Windows,900,1600,23.761283333333335,
193,default,block1,jayden,projective,0.05,199838,confirm,9,confirm,C,[],29,Yes,It is an awesome study,Male,English,Chrome,Windows,900,1600,23.761283333333335,
193,default,block1,ballet,projective,0.93,7800,MC,10,MC,MC,[],29,Yes,It is an awesome study,Male,English,Chrome,Windows,900,1600,23.761283333333335,
193,default,block1,mia,projective,0.92,13511,say,11,say,C,[],29,Yes,It is an awesome study,Male,English,Chrome,Windows,900,1600,23.761283333333335,
193,default,block1,jon,projective,0.83,11217,confess,12,confess,C,[],29,Yes,It is an awesome study,Male,English,Chrome,Windows,900,1600,23.761283333333335,
193,default,block1,charley,projective,0.67,30863,think,13,think,C,[],29,Yes,It is an awesome study,Male,English,Chrome,Windows,900,1600,23.761283333333335,
193,default,block1,pizza,projective,0.87,6360,MC,14,MC,MC,[],29,Yes,It is an awesome study,Male,English,Chrome,Windows,900,1600,23.761283333333335,
193,default,block1,muffins,projective,0.98,19704,MC,15,MC,MC,[],29,Yes,It is an awesome study,Male,English,Chrome,Windows,900,1600,23.761283333333335,
193,default,block1,isabella,projective,0.9,32656,see,16,see,C,[],29,Yes,It is an awesome study,Male,English,Chrome,Windows,900,1600,23.761283333333335,
193,default,block1,zoe,projective,0.09,9400,establish,17,establish,C,[],29,Yes,It is an awesome study,Male,English,Chrome,Windows,900,1600,23.761283333333335,
193,default,block1,kids,projective,0.9,4935,MC,18,MC,MC,[],29,Yes,It is an awesome study,Male,English,Chrome,Windows,900,1600,23.761283333333335,
193,default,block1,tony,projective,0.16,17856,be_right,19,be_right,C,[],29,Yes,It is an awesome study,Male,English,Chrome,Windows,900,1600,23.761283333333335,
193,default,block1,mary,projective,0.07,87951,prove,20,prove,C,[],29,Yes,It is an awesome study,Male,English,Chrome,Windows,900,1600,23.761283333333335,
193,default,block1,danny,projective,0.04,10903,suggest,21,suggest,C,[],29,Yes,It is an awesome study,Male,English,Chrome,Windows,900,1600,23.761283333333335,
193,default,block1,frank,projective,0.09,8088,demonstrate,22,demonstrate,C,[],29,Yes,It is an awesome study,Male,English,Chrome,Windows,900,1600,23.761283333333335,
193,default,block1,josh,projective,0.95,10280,pretend,23,pretend,C,[],29,Yes,It is an awesome study,Male,English,Chrome,Windows,900,1600,23.761283333333335,
193,default,block1,hat,projective,0.97,4568,MC,24,MC,MC,[],29,Yes,It is an awesome study,Male,English,Chrome,Windows,900,1600,23.761283333333335,
193,default,block1,julian,projective,0.98,5929,know,25,know,C,[],29,Yes,It is an awesome study,Male,English,Chrome,Windows,900,1600,23.761283333333335,
193,default,block1,grace,projective,0.99,5695,inform,26,inform,C,[],29,Yes,It is an awesome study,Male,English,Chrome,Windows,900,1600,23.761283333333335,
193,default,block1,emma,projective,0.97,6159,reveal,27,reveal,C,[],29,Yes,It is an awesome study,Male,English,Chrome,Windows,900,1600,23.761283333333335,
193,default,block1,owen,projective,0.96,5952,be_annoyed,28,be_annoyed,C,[],29,Yes,It is an awesome study,Male,English,Chrome,Windows,900,1600,23.761283333333335,
193,default,block1,olivia,projective,0.16,12912,acknowledge,29,acknowledge,C,[],29,Yes,It is an awesome study,Male,English,Chrome,Windows,900,1600,23.761283333333335,
193,default,block1,jackson,projective,0.09,6688,admit,30,admit,C,[],29,Yes,It is an awesome study,Male,English,Chrome,Windows,900,1600,23.761283333333335,
193,default,block2,danny,ai,0.06,24775,suggest,32,suggest,C,[],29,Yes,It is an awesome study,Male,English,Chrome,Windows,900,1600,23.761283333333335,
193,default,block2,tony,ai,0.04,161367,be_right,33,be_right,C,[],29,Yes,It is an awesome study,Male,English,Chrome,Windows,900,1600,23.761283333333335,
193,default,block2,mary,ai,0.05,45855,prove,34,prove,C,[],29,Yes,It is an awesome study,Male,English,Chrome,Windows,900,1600,23.761283333333335,
193,default,block2,pizza,ai,0.98,16616,MC,35,MC,MC,[],29,Yes,It is an awesome study,Male,English,Chrome,Windows,900,1600,23.761283333333335,
193,default,block2,emily,ai,0.96,6312,announce,36,announce,C,[],29,Yes,It is an awesome study,Male,English,Chrome,Windows,900,1600,23.761283333333335,
193,default,block2,frank,ai,0.94,7160,demonstrate,37,demonstrate,C,[],29,Yes,It is an awesome study,Male,English,Chrome,Windows,900,1600,23.761283333333335,
193,default,block2,grace,ai,0.93,20472,inform,38,inform,C,[],29,Yes,It is an awesome study,Male,English,Chrome,Windows,900,1600,23.761283333333335,
193,default,block2,kids,ai,0.92,6688,MC,39,MC,MC,[],29,Yes,It is an awesome study,Male,English,Chrome,Windows,900,1600,23.761283333333335,
193,default,block2,emma,ai,0.94,11184,reveal,40,reveal,C,[],29,Yes,It is an awesome study,Male,English,Chrome,Windows,900,1600,23.761283333333335,
193,default,block2,garage,ai,0.95,7079,MC,41,MC,MC,[],29,Yes,It is an awesome study,Male,English,Chrome,Windows,900,1600,23.761283333333335,
193,default,block2,josh,ai,0.94,31063,pretend,42,pretend,C,[],29,Yes,It is an awesome study,Male,English,Chrome,Windows,900,1600,23.761283333333335,
193,default,block2,hat,ai,0.94,5007,MC,43,MC,MC,[],29,Yes,It is an awesome study,Male,English,Chrome,Windows,900,1600,23.761283333333335,
193,default,block2,olivia,ai,0.94,6064,acknowledge,44,acknowledge,C,[],29,Yes,It is an awesome study,Male,English,Chrome,Windows,900,1600,23.761283333333335,
193,default,block2,sophia,ai,0.98,7336,discover,45,discover,C,[],29,Yes,It is an awesome study,Male,English,Chrome,Windows,900,1600,23.761283333333335,
193,default,block2,owen,ai,0.05,16856,be_annoyed,46,be_annoyed,C,[],29,Yes,It is an awesome study,Male,English,Chrome,Windows,900,1600,23.761283333333335,
193,default,block2,mia,ai,0.03,19584,say,47,say,C,[],29,Yes,It is an awesome study,Male,English,Chrome,Windows,900,1600,23.761283333333335,
193,default,block2,zoe,ai,0.02,12128,establish,48,establish,C,[],29,Yes,It is an awesome study,Male,English,Chrome,Windows,900,1600,23.761283333333335,
193,default,block2,jackson,ai,0.54,24199,admit,49,admit,C,[],29,Yes,It is an awesome study,Male,English,Chrome,Windows,900,1600,23.761283333333335,
193,default,block2,jayden,ai,0.03,8225,confirm,50,confirm,C,[],29,Yes,It is an awesome study,Male,English,Chrome,Windows,900,1600,23.761283333333335,
193,default,block2,josie,ai,0.13,10664,hear,51,hear,C,[],29,Yes,It is an awesome study,Male,English,Chrome,Windows,900,1600,23.761283333333335,
193,default,block2,jon,ai,0.07,3575,confess,52,confess,C,[],29,Yes,It is an awesome study,Male,English,Chrome,Windows,900,1600,23.761283333333335,
193,default,block2,isabella,ai,0.08,9680,see,53,see,C,[],29,Yes,It is an awesome study,Male,English,Chrome,Windows,900,1600,23.761283333333335,
193,default,block2,julian,ai,0.02,7431,know,54,know,C,[],29,Yes,It is an awesome study,Male,English,Chrome,Windows,900,1600,23.761283333333335,
193,default,block2,charley,ai,0.12,9168,think,55,think,C,[],29,Yes,It is an awesome study,Male,English,Chrome,Windows,900,1600,23.761283333333335,
193,default,block2,muffins,ai,0.99,4224,MC,56,MC,MC,[],29,Yes,It is an awesome study,Male,English,Chrome,Windows,900,1600,23.761283333333335,
193,default,block2,ballet,ai,0.97,4760,MC,57,MC,MC,[],29,Yes,It is an awesome study,Male,English,Chrome,Windows,900,1600,23.761283333333335,
143,default,block1,mia,projective,0.76,354946,confess,5,confess,C,[],43,Yes,,Female,English,Chrome,Linux,640,320,23.361433333333338,
143,default,block1,emma,projective,0.96,12596,be_annoyed,6,be_annoyed,C,[],43,Yes,,Female,English,Chrome,Linux,640,320,23.361433333333338,
143,default,block1,danny,projective,0.67,12058,confirm,7,confirm,C,[],43,Yes,,Female,English,Chrome,Linux,640,320,23.361433333333338,
143,default,block1,zoe,projective,0.5,11169,think,8,think,C,[],43,Yes,,Female,English,Chrome,Linux,640,320,23.361433333333338,
143,default,block1,josie,projective,0.78,6819,see,9,see,C,[],43,Yes,,Female,English,Chrome,Linux,640,320,23.361433333333338,
143,default,block1,ballet,projective,0.98,4732,MC,10,MC,MC,[],43,Yes,,Female,English,Chrome,Linux,640,320,23.361433333333338,
143,default,block1,mary,projective,0.74,117585,acknowledge,11,acknowledge,C,[],43,Yes,,Female,English,Chrome,Linux,640,320,23.361433333333338,
143,default,block1,jon,projective,0.28,6116,establish,12,establish,C,[],43,Yes,,Female,English,Chrome,Linux,640,320,23.361433333333338,
143,default,block1,tony,projective,0.6,79118,announce,13,announce,C,[],43,Yes,,Female,English,Chrome,Linux,640,320,23.361433333333338,
143,default,block1,charley,projective,0.21,6725,prove,14,prove,C,[],43,Yes,,Female,English,Chrome,Linux,640,320,23.361433333333338,
143,default,block1,hat,projective,0.97,4830,MC,15,MC,MC,[],43,Yes,,Female,English,Chrome,Linux,640,320,23.361433333333338,
143,default,block1,josh,projective,0.42,7151,suggest,16,suggest,C,[],43,Yes,,Female,English,Chrome,Linux,640,320,23.361433333333338,
143,default,block1,julian,projective,0.39,4947,pretend,17,pretend,C,[],43,Yes,,Female,English,Chrome,Linux,640,320,23.361433333333338,
143,default,block1,jayden,projective,0.67,179969,hear,18,hear,C,[],43,Yes,,Female,English,Chrome,Linux,640,320,23.361433333333338,
143,default,block1,sophia,projective,0.69,141686,inform,19,inform,C,[],43,Yes,,Female,English,Chrome,Linux,640,320,23.361433333333338,
143,default,block1,jackson,projective,0.33,64025,be_right,20,be_right,C,[],43,Yes,,Female,English,Chrome,Linux,640,320,23.361433333333338,
143,default,block1,olivia,projective,0.49,7665,say,21,say,C,[],43,Yes,,Female,English,Chrome,Linux,640,320,23.361433333333338,
143,default,block1,frank,projective,0.55,10011,reveal,22,reveal,C,[],43,Yes,,Female,English,Chrome,Linux,640,320,23.361433333333338,
143,default,block1,kids,projective,0.96,7846,MC,23,MC,MC,[],43,Yes,,Female,English,Chrome,Linux,640,320,23.361433333333338,
143,default,block1,muffins,projective,0.95,10103,MC,24,MC,MC,[],43,Yes,,Female,English,Chrome,Linux,640,320,23.361433333333338,
143,default,block1,garage,projective,0.98,7431,MC,25,MC,MC,[],43,Yes,,Female,English,Chrome,Linux,640,320,23.361433333333338,
143,default,block1,owen,projective,0.78,33427,admit,26,admit,C,[],43,Yes,,Female,English,Chrome,Linux,640,320,23.361433333333338,
143,default,block1,pizza,projective,0.97,6232,MC,27,MC,MC,[],43,Yes,,Female,English,Chrome,Linux,640,320,23.361433333333338,
143,default,block1,emily,projective,0.97,6144,know,28,know,C,[],43,Yes,,Female,English,Chrome,Linux,640,320,23.361433333333338,
143,default,block1,grace,projective,0.75,6607,demonstrate,29,demonstrate,C,[],43,Yes,,Female,English,Chrome,Linux,640,320,23.361433333333338,
143,default,block1,isabella,projective,0.71,5320,discover,30,discover,C,[],43,Yes,,Female,English,Chrome,Linux,640,320,23.361433333333338,
143,default,block2,owen,ai,0.2,9768,admit,32,admit,C,[],43,Yes,,Female,English,Chrome,Linux,640,320,23.361433333333338,
143,default,block2,mia,ai,0.35,5967,confess,33,confess,C,[],43,Yes,,Female,English,Chrome,Linux,640,320,23.361433333333338,
143,default,block2,muffins,ai,0.97,5762,MC,34,MC,MC,[],43,Yes,,Female,English,Chrome,Linux,640,320,23.361433333333338,
143,default,block2,jayden,ai,0.25,4794,hear,35,hear,C,[],43,Yes,,Female,English,Chrome,Linux,640,320,23.361433333333338,
143,default,block2,sophia,ai,0.24,6708,inform,36,inform,C,[],43,Yes,,Female,English,Chrome,Linux,640,320,23.361433333333338,
143,default,block2,jon,ai,0.21,6538,establish,37,establish,C,[],43,Yes,,Female,English,Chrome,Linux,640,320,23.361433333333338,
143,default,block2,olivia,ai,0.17,7060,say,38,say,C,[],43,Yes,,Female,English,Chrome,Linux,640,320,23.361433333333338,
143,default,block2,zoe,ai,0.32,12353,think,39,think,C,[],43,Yes,,Female,English,Chrome,Linux,640,320,23.361433333333338,
143,default,block2,pizza,ai,0.96,4285,MC,40,MC,MC,[],43,Yes,,Female,English,Chrome,Linux,640,320,23.361433333333338,
143,default,block2,josh,ai,0.28,4949,suggest,41,suggest,C,[],43,Yes,,Female,English,Chrome,Linux,640,320,23.361433333333338,
143,default,block2,frank,ai,0.35,4937,reveal,42,reveal,C,[],43,Yes,,Female,English,Chrome,Linux,640,320,23.361433333333338,
143,default,block2,garage,ai,0.97,4658,MC,43,MC,MC,[],43,Yes,,Female,English,Chrome,Linux,640,320,23.361433333333338,
143,default,block2,emma,ai,0.22,33355,be_annoyed,44,be_annoyed,C,[],43,Yes,,Female,English,Chrome,Linux,640,320,23.361433333333338,
143,default,block2,kids,ai,0.99,8882,MC,45,MC,MC,[],43,Yes,,Female,English,Chrome,Linux,640,320,23.361433333333338,
143,default,block2,hat,ai,1,9798,MC,46,MC,MC,[],43,Yes,,Female,English,Chrome,Linux,640,320,23.361433333333338,
143,default,block2,ballet,ai,0.98,3594,MC,47,MC,MC,[],43,Yes,,Female,English,Chrome,Linux,640,320,23.361433333333338,
143,default,block2,emily,ai,0.23,4648,know,48,know,C,[],43,Yes,,Female,English,Chrome,Linux,640,320,23.361433333333338,
143,default,block2,jackson,ai,0.27,6960,be_right,49,be_right,C,[],43,Yes,,Female,English,Chrome,Linux,640,320,23.361433333333338,
143,default,block2,julian,ai,0.23,5832,pretend,50,pretend,C,[],43,Yes,,Female,English,Chrome,Linux,640,320,23.361433333333338,
143,default,block2,charley,ai,0.3,9264,prove,51,prove,C,[],43,Yes,,Female,English,Chrome,Linux,640,320,23.361433333333338,
143,default,block2,mary,ai,0.27,4335,acknowledge,52,acknowledge,C,[],43,Yes,,Female,English,Chrome,Linux,640,320,23.361433333333338,
143,default,block2,isabella,ai,0.24,4743,discover,53,discover,C,[],43,Yes,,Female,English,Chrome,Linux,640,320,23.361433333333338,
143,default,block2,grace,ai,0.36,6987,demonstrate,54,demonstrate,C,[],43,Yes,,Female,English,Chrome,Linux,640,320,23.361433333333338,
143,default,block2,josie,ai,0.43,10869,see,55,see,C,[],43,Yes,,Female,English,Chrome,Linux,640,320,23.361433333333338,
143,default,block2,danny,ai,0.32,10858,confirm,56,confirm,C,[],43,Yes,,Female,English,Chrome,Linux,640,320,23.361433333333338,
143,default,block2,tony,ai,0.32,5740,announce,57,announce,C,[],43,Yes,,Female,English,Chrome,Linux,640,320,23.361433333333338,
263,default,block1,muffins,ai,1,15673,MC,5,MC,MC,[],21,Yes,,Male,english,Chrome,Mac,900,1440,8.919533333333334,
263,default,block1,mia,ai,0,17467,announce,6,announce,C,[],21,Yes,,Male,english,Chrome,Mac,900,1440,8.919533333333334,
263,default,block1,charley,ai,0.91,22546,see,7,see,C,[],21,Yes,,Male,english,Chrome,Mac,900,1440,8.919533333333334,
263,default,block1,julian,ai,0.89,4870,be_right,8,be_right,C,[],21,Yes,,Male,english,Chrome,Mac,900,1440,8.919533333333334,
263,default,block1,ballet,ai,0.96,5371,MC,9,MC,MC,[],21,Yes,,Male,english,Chrome,Mac,900,1440,8.919533333333334,
263,default,block1,zoe,ai,0.84,16923,reveal,10,reveal,C,[],21,Yes,,Male,english,Chrome,Mac,900,1440,8.919533333333334,
263,default,block1,sophia,ai,0.06,13804,discover,11,discover,C,[],21,Yes,,Male,english,Chrome,Mac,900,1440,8.919533333333334,
263,default,block1,grace,ai,0.92,10252,acknowledge,12,acknowledge,C,[],21,Yes,,Male,english,Chrome,Mac,900,1440,8.919533333333334,
263,default,block1,josh,ai,0.89,4597,inform,13,inform,C,[],21,Yes,,Male,english,Chrome,Mac,900,1440,8.919533333333334,
263,default,block1,tony,ai,0.88,72634,know,14,know,C,[],21,Yes,,Male,english,Chrome,Mac,900,1440,8.919533333333334,
263,default,block1,frank,ai,0.92,16686,think,15,think,C,[],21,Yes,,Male,english,Chrome,Mac,900,1440,8.919533333333334,
263,default,block1,pizza,ai,0.1,17466,MC,16,MC,MC,[],21,Yes,,Male,english,Chrome,Mac,900,1440,8.919533333333334,
263,default,block1,hat,ai,0.8,14367,MC,17,MC,MC,[],21,Yes,,Male,english,Chrome,Mac,900,1440,8.919533333333334,
263,default,block1,owen,ai,0.96,3459,admit,18,admit,C,[],21,Yes,,Male,english,Chrome,Mac,900,1440,8.919533333333334,
263,default,block1,emily,ai,0.81,34766,prove,19,prove,C,[],21,Yes,,Male,english,Chrome,Mac,900,1440,8.919533333333334,
263,default,block1,jayden,ai,0.85,5572,hear,20,hear,C,[],21,Yes,,Male,english,Chrome,Mac,900,1440,8.919533333333334,
263,default,block1,mary,ai,0.81,2879,confirm,21,confirm,C,[],21,Yes,,Male,english,Chrome,Mac,900,1440,8.919533333333334,
263,default,block1,emma,ai,0.21,9982,suggest,22,suggest,C,[],21,Yes,,Male,english,Chrome,Mac,900,1440,8.919533333333334,
263,default,block1,jon,ai,0.88,2292,say,23,say,C,[],21,Yes,,Male,english,Chrome,Mac,900,1440,8.919533333333334,
263,default,block1,josie,ai,0.8,2812,demonstrate,24,demonstrate,C,[],21,Yes,,Male,english,Chrome,Mac,900,1440,8.919533333333334,
263,default,block1,olivia,ai,0.32,5939,confess,25,confess,C,[],21,Yes,,Male,english,Chrome,Mac,900,1440,8.919533333333334,
263,default,block1,isabella,ai,0.1,10690,be_annoyed,26,be_annoyed,C,[],21,Yes,,Male,english,Chrome,Mac,900,1440,8.919533333333334,
263,default,block1,danny,ai,0.81,15367,pretend,27,pretend,C,[],21,Yes,,Male,english,Chrome,Mac,900,1440,8.919533333333334,
263,default,block1,garage,ai,0.75,4108,MC,28,MC,MC,[],21,Yes,,Male,english,Chrome,Mac,900,1440,8.919533333333334,
263,default,block1,jackson,ai,0,11815,establish,29,establish,C,[],21,Yes,,Male,english,Chrome,Mac,900,1440,8.919533333333334,
263,default,block1,kids,ai,0.82,4660,MC,30,MC,MC,[],21,Yes,,Male,english,Chrome,Mac,900,1440,8.919533333333334,
263,default,block2,isabella,projective,0.92,10408,be_annoyed,32,be_annoyed,C,[],21,Yes,,Male,english,Chrome,Mac,900,1440,8.919533333333334,
263,default,block2,ballet,projective,0.9,5725,MC,33,MC,MC,[],21,Yes,,Male,english,Chrome,Mac,900,1440,8.919533333333334,
263,default,block2,hat,projective,0.55,3355,MC,34,MC,MC,[],21,Yes,,Male,english,Chrome,Mac,900,1440,8.919533333333334,
263,default,block2,sophia,projective,0.29,2522,discover,35,discover,C,[],21,Yes,,Male,english,Chrome,Mac,900,1440,8.919533333333334,
263,default,block2,jon,projective,0.8,2269,say,36,say,C,[],21,Yes,,Male,english,Chrome,Mac,900,1440,8.919533333333334,
263,default,block2,tony,projective,0.79,2449,know,37,know,C,[],21,Yes,,Male,english,Chrome,Mac,900,1440,8.919533333333334,
263,default,block2,mia,projective,0.78,10943,announce,38,announce,C,[],21,Yes,,Male,english,Chrome,Mac,900,1440,8.919533333333334,
263,default,block2,julian,projective,0.46,3808,be_right,39,be_right,C,[],21,Yes,,Male,english,Chrome,Mac,900,1440,8.919533333333334,
263,default,block2,zoe,projective,0.54,5474,reveal,40,reveal,C,[],21,Yes,,Male,english,Chrome,Mac,900,1440,8.919533333333334,
263,default,block2,kids,projective,0.53,15324,MC,41,MC,MC,[],21,Yes,,Male,english,Chrome,Mac,900,1440,8.919533333333334,
263,default,block2,emily,projective,0.77,19135,prove,42,prove,C,[],21,Yes,,Male,english,Chrome,Mac,900,1440,8.919533333333334,
263,default,block2,frank,projective,0,9037,think,43,think,C,[],21,Yes,,Male,english,Chrome,Mac,900,1440,8.919533333333334,
263,default,block2,owen,projective,0.04,9121,admit,44,admit,C,[],21,Yes,,Male,english,Chrome,Mac,900,1440,8.919533333333334,
263,default,block2,jackson,projective,0,3204,establish,45,establish,C,[],21,Yes,,Male,english,Chrome,Mac,900,1440,8.919533333333334,
263,default,block2,garage,projective,0,4909,MC,46,MC,MC,[],21,Yes,,Male,english,Chrome,Mac,900,1440,8.919533333333334,
263,default,block2,josie,projective,1,2448,demonstrate,47,demonstrate,C,[],21,Yes,,Male,english,Chrome,Mac,900,1440,8.919533333333334,
263,default,block2,olivia,projective,0,2305,confess,48,confess,C,[],21,Yes,,Male,english,Chrome,Mac,900,1440,8.919533333333334,
263,default,block2,grace,projective,1,6513,acknowledge,49,acknowledge,C,[],21,Yes,,Male,english,Chrome,Mac,900,1440,8.919533333333334,
263,default,block2,mary,projective,0,4785,confirm,50,confirm,C,[],21,Yes,,Male,english,Chrome,Mac,900,1440,8.919533333333334,
263,default,block2,muffins,projective,0.21,4043,MC,51,MC,MC,[],21,Yes,,Male,english,Chrome,Mac,900,1440,8.919533333333334,
263,default,block2,emma,projective,0.62,8298,suggest,52,suggest,C,[],21,Yes,,Male,english,Chrome,Mac,900,1440,8.919533333333334,
263,default,block2,danny,projective,0.46,9858,pretend,53,pretend,C,[],21,Yes,,Male,english,Chrome,Mac,900,1440,8.919533333333334,
263,default,block2,josh,projective,0.61,1769,inform,54,inform,C,[],21,Yes,,Male,english,Chrome,Mac,900,1440,8.919533333333334,
263,default,block2,jayden,projective,0.64,2690,hear,55,hear,C,[],21,Yes,,Male,english,Chrome,Mac,900,1440,8.919533333333334,
263,default,block2,charley,projective,0.52,8870,see,56,see,C,[],21,Yes,,Male,english,Chrome,Mac,900,1440,8.919533333333334,
263,default,block2,pizza,projective,1,4822,MC,57,MC,MC,[],21,Yes,,Male,english,Chrome,Mac,900,1440,8.919533333333334,
93,default,block1,josie,projective,0.16,12720,reveal,5,reveal,C,[],22,Yes,,Female,English,Safari,Mac,1180,820,6.1255,
93,default,block1,muffins,projective,0.89,8275,MC,6,MC,MC,[],22,Yes,,Female,English,Safari,Mac,1180,820,6.1255,
93,default,block1,emily,projective,0.43,10549,pretend,7,pretend,C,[],22,Yes,,Female,English,Safari,Mac,1180,820,6.1255,
93,default,block1,mia,projective,0.39,7513,demonstrate,8,demonstrate,C,[],22,Yes,,Female,English,Safari,Mac,1180,820,6.1255,
93,default,block1,kids,projective,0.83,5159,MC,9,MC,MC,[],22,Yes,,Female,English,Safari,Mac,1180,820,6.1255,
93,default,block1,zoe,projective,0.59,7889,discover,10,discover,C,[],22,Yes,,Female,English,Safari,Mac,1180,820,6.1255,
93,default,block1,sophia,projective,0.72,6089,know,11,know,C,[],22,Yes,,Female,English,Safari,Mac,1180,820,6.1255,
93,default,block1,owen,projective,0.34,7830,suggest,12,suggest,C,[],22,Yes,,Female,English,Safari,Mac,1180,820,6.1255,
93,default,block1,pizza,projective,0.85,4528,MC,13,MC,MC,[],22,Yes,,Female,English,Safari,Mac,1180,820,6.1255,
93,default,block1,olivia,projective,0.46,5296,prove,14,prove,C,[],22,Yes,,Female,English,Safari,Mac,1180,820,6.1255,
93,default,block1,jayden,projective,0.55,8838,acknowledge,15,acknowledge,C,[],22,Yes,,Female,English,Safari,Mac,1180,820,6.1255,
93,default,block1,josh,projective,0.56,8608,hear,16,hear,C,[],22,Yes,,Female,English,Safari,Mac,1180,820,6.1255,
93,default,block1,isabella,projective,0.58,7335,say,17,say,C,[],22,Yes,,Female,English,Safari,Mac,1180,820,6.1255,
93,default,block1,grace,projective,0.64,4874,see,18,see,C,[],22,Yes,,Female,English,Safari,Mac,1180,820,6.1255,
93,default,block1,frank,projective,0.34,4509,confirm,19,confirm,C,[],22,Yes,,Female,English,Safari,Mac,1180,820,6.1255,
93,default,block1,ballet,projective,0.94,4816,MC,20,MC,MC,[],22,Yes,,Female,English,Safari,Mac,1180,820,6.1255,
93,default,block1,charley,projective,0.17,6676,think,21,think,C,[],22,Yes,,Female,English,Safari,Mac,1180,820,6.1255,
93,default,block1,julian,projective,0.39,6528,be_right,22,be_right,C,[],22,Yes,,Female,English,Safari,Mac,1180,820,6.1255,
93,default,block1,jon,projective,0.24,4499,establish,23,establish,C,[],22,Yes,,Female,English,Safari,Mac,1180,820,6.1255,
93,default,block1,danny,projective,0.32,4035,confess,24,confess,C,[],22,Yes,,Female,English,Safari,Mac,1180,820,6.1255,
93,default,block1,jackson,projective,0.51,3735,admit,25,admit,C,[],22,Yes,,Female,English,Safari,Mac,1180,820,6.1255,
93,default,block1,hat,projective,0.93,3340,MC,26,MC,MC,[],22,Yes,,Female,English,Safari,Mac,1180,820,6.1255,
93,default,block1,tony,projective,0.5,7220,inform,27,inform,C,[],22,Yes,,Female,English,Safari,Mac,1180,820,6.1255,
93,default,block1,garage,projective,0.89,3510,MC,28,MC,MC,[],22,Yes,,Female,English,Safari,Mac,1180,820,6.1255,
93,default,block1,mary,projective,0.39,4425,announce,29,announce,C,[],22,Yes,,Female,English,Safari,Mac,1180,820,6.1255,
93,default,block1,emma,projective,0.82,6749,be_annoyed,30,be_annoyed,C,[],22,Yes,,Female,English,Safari,Mac,1180,820,6.1255,
93,default,block2,jayden,ai,0.35,7139,acknowledge,32,acknowledge,C,[],22,Yes,,Female,English,Safari,Mac,1180,820,6.1255,
93,default,block2,owen,ai,0.25,6884,suggest,33,suggest,C,[],22,Yes,,Female,English,Safari,Mac,1180,820,6.1255,
93,default,block2,kids,ai,0.94,4050,MC,34,MC,MC,[],22,Yes,,Female,English,Safari,Mac,1180,820,6.1255,
93,default,block2,muffins,ai,0.92,4812,MC,35,MC,MC,[],22,Yes,,Female,English,Safari,Mac,1180,820,6.1255,
93,default,block2,emma,ai,0.29,6631,be_annoyed,36,be_annoyed,C,[],22,Yes,,Female,English,Safari,Mac,1180,820,6.1255,
93,default,block2,hat,ai,0.95,3162,MC,37,MC,MC,[],22,Yes,,Female,English,Safari,Mac,1180,820,6.1255,
93,default,block2,emily,ai,0.38,6424,pretend,38,pretend,C,[],22,Yes,,Female,English,Safari,Mac,1180,820,6.1255,
93,default,block2,garage,ai,0.93,2850,MC,39,MC,MC,[],22,Yes,,Female,English,Safari,Mac,1180,820,6.1255,
93,default,block2,ballet,ai,0.99,3180,MC,40,MC,MC,[],22,Yes,,Female,English,Safari,Mac,1180,820,6.1255,
93,default,block2,charley,ai,0.25,6945,think,41,think,C,[],22,Yes,,Female,English,Safari,Mac,1180,820,6.1255,
93,default,block2,grace,ai,0.38,5385,see,42,see,C,[],22,Yes,,Female,English,Safari,Mac,1180,820,6.1255,
93,default,block2,jon,ai,0.35,6555,establish,43,establish,C,[],22,Yes,,Female,English,Safari,Mac,1180,820,6.1255,
93,default,block2,danny,ai,0.51,4724,confess,44,confess,C,[],22,Yes,,Female,English,Safari,Mac,1180,820,6.1255,
93,default,block2,pizza,ai,0.95,3150,MC,45,MC,MC,[],22,Yes,,Female,English,Safari,Mac,1180,820,6.1255,
93,default,block2,olivia,ai,0.52,6151,prove,46,prove,C,[],22,Yes,,Female,English,Safari,Mac,1180,820,6.1255,
93,default,block2,josh,ai,0.46,5114,hear,47,hear,C,[],22,Yes,,Female,English,Safari,Mac,1180,820,6.1255,
93,default,block2,josie,ai,0.37,5189,reveal,48,reveal,C,[],22,Yes,,Female,English,Safari,Mac,1180,820,6.1255,
93,default,block2,sophia,ai,0.48,6420,know,49,know,C,[],22,Yes,,Female,English,Safari,Mac,1180,820,6.1255,
93,default,block2,julian,ai,0.53,7943,be_right,50,be_right,C,[],22,Yes,,Female,English,Safari,Mac,1180,820,6.1255,
93,default,block2,frank,ai,0.36,4954,confirm,51,confirm,C,[],22,Yes,,Female,English,Safari,Mac,1180,820,6.1255,
93,default,block2,zoe,ai,0.38,3842,discover,52,discover,C,[],22,Yes,,Female,English,Safari,Mac,1180,820,6.1255,
93,default,block2,tony,ai,0.38,4304,inform,53,inform,C,[],22,Yes,,Female,English,Safari,Mac,1180,820,6.1255,
93,default,block2,mia,ai,0.37,3600,demonstrate,54,demonstrate,C,[],22,Yes,,Female,English,Safari,Mac,1180,820,6.1255,
93,default,block2,mary,ai,0.37,4158,announce,55,announce,C,[],22,Yes,,Female,English,Safari,Mac,1180,820,6.1255,
93,default,block2,jackson,ai,0.34,4298,admit,56,admit,C,[],22,Yes,,Female,English,Safari,Mac,1180,820,6.1255,
93,default,block2,isabella,ai,0.33,4024,say,57,say,C,[],22,Yes,,Female,English,Safari,Mac,1180,820,6.1255,
133,default,block1,frank,projective,1,7568,hear,5,hear,C,[],24,Yes,,Male,English,Chrome,Mac,900,1440,4.916033333333333,
133,default,block1,sophia,projective,1,5953,inform,6,inform,C,[],24,Yes,,Male,English,Chrome,Mac,900,1440,4.916033333333333,
133,default,block1,emma,projective,1,7659,confess,7,confess,C,[],24,Yes,,Male,English,Chrome,Mac,900,1440,4.916033333333333,
133,default,block1,josie,projective,1,3520,establish,8,establish,C,[],24,Yes,,Male,English,Chrome,Mac,900,1440,4.916033333333333,
133,default,block1,muffins,projective,1,5653,MC,9,MC,MC,[],24,Yes,,Male,English,Chrome,Mac,900,1440,4.916033333333333,
133,default,block1,jon,projective,0.97,6138,know,10,know,C,[],24,Yes,,Male,English,Chrome,Mac,900,1440,4.916033333333333,
133,default,block1,pizza,projective,0.94,4645,MC,11,MC,MC,[],24,Yes,,Male,English,Chrome,Mac,900,1440,4.916033333333333,
133,default,block1,garage,projective,1,4498,MC,12,MC,MC,[],24,Yes,,Male,English,Chrome,Mac,900,1440,4.916033333333333,
133,default,block1,kids,projective,0.96,6046,MC,13,MC,MC,[],24,Yes,,Male,English,Chrome,Mac,900,1440,4.916033333333333,
133,default,block1,mia,projective,1,3383,think,14,think,C,[],24,Yes,,Male,English,Chrome,Mac,900,1440,4.916033333333333,
133,default,block1,julian,projective,0.97,2371,announce,15,announce,C,[],24,Yes,,Male,English,Chrome,Mac,900,1440,4.916033333333333,
133,default,block1,jackson,projective,0.97,1984,say,16,say,C,[],24,Yes,,Male,English,Chrome,Mac,900,1440,4.916033333333333,
133,default,block1,mary,projective,0.96,2366,prove,17,prove,C,[],24,Yes,,Male,English,Chrome,Mac,900,1440,4.916033333333333,
133,default,block1,hat,projective,0.98,7077,MC,18,MC,MC,[],24,Yes,,Male,English,Chrome,Mac,900,1440,4.916033333333333,
133,default,block1,isabella,projective,0.96,6372,reveal,19,reveal,C,[],24,Yes,,Male,English,Chrome,Mac,900,1440,4.916033333333333,
133,default,block1,danny,projective,0.01,12578,pretend,20,pretend,C,[],24,Yes,,Male,English,Chrome,Mac,900,1440,4.916033333333333,
133,default,block1,grace,projective,0.03,15841,confirm,21,confirm,C,[],24,Yes,,Male,English,Chrome,Mac,900,1440,4.916033333333333,
133,default,block1,tony,projective,0.03,3423,demonstrate,22,demonstrate,C,[],24,Yes,,Male,English,Chrome,Mac,900,1440,4.916033333333333,
133,default,block1,olivia,projective,0.5,6909,acknowledge,23,acknowledge,C,[],24,Yes,,Male,English,Chrome,Mac,900,1440,4.916033333333333,
133,default,block1,zoe,projective,0.02,6629,see,24,see,C,[],24,Yes,,Male,English,Chrome,Mac,900,1440,4.916033333333333,
133,default,block1,owen,projective,0.01,4013,suggest,25,suggest,C,[],24,Yes,,Male,English,Chrome,Mac,900,1440,4.916033333333333,
133,default,block1,emily,projective,0.98,4641,be_annoyed,26,be_annoyed,C,[],24,Yes,,Male,English,Chrome,Mac,900,1440,4.916033333333333,
133,default,block1,ballet,projective,0.99,3917,MC,27,MC,MC,[],24,Yes,,Male,English,Chrome,Mac,900,1440,4.916033333333333,
133,default,block1,josh,projective,0.52,5064,be_right,28,be_right,C,[],24,Yes,,Male,English,Chrome,Mac,900,1440,4.916033333333333,
133,default,block1,charley,projective,0.97,5926,discover,29,discover,C,[],24,Yes,,Male,English,Chrome,Mac,900,1440,4.916033333333333,
133,default,block1,jayden,projective,0.98,6458,admit,30,admit,C,[],24,Yes,,Male,English,Chrome,Mac,900,1440,4.916033333333333,
133,default,block2,ballet,ai,0.97,6737,MC,32,MC,MC,[],24,Yes,,Male,English,Chrome,Mac,900,1440,4.916033333333333,
133,default,block2,hat,ai,0.99,2902,MC,33,MC,MC,[],24,Yes,,Male,English,Chrome,Mac,900,1440,4.916033333333333,
133,default,block2,danny,ai,0.01,9633,pretend,34,pretend,C,[],24,Yes,,Male,English,Chrome,Mac,900,1440,4.916033333333333,
133,default,block2,mary,ai,0.03,7153,prove,35,prove,C,[],24,Yes,,Male,English,Chrome,Mac,900,1440,4.916033333333333,
133,default,block2,kids,ai,0.99,4530,MC,36,MC,MC,[],24,Yes,,Male,English,Chrome,Mac,900,1440,4.916033333333333,
133,default,block2,zoe,ai,0.01,5338,see,37,see,C,[],24,Yes,,Male,English,Chrome,Mac,900,1440,4.916033333333333,
133,default,block2,grace,ai,0.02,4488,confirm,38,confirm,C,[],24,Yes,,Male,English,Chrome,Mac,900,1440,4.916033333333333,
133,default,block2,jon,ai,0.01,3126,know,39,know,C,[],24,Yes,,Male,English,Chrome,Mac,900,1440,4.916033333333333,
133,default,block2,mia,ai,0.02,5002,think,40,think,C,[],24,Yes,,Male,English,Chrome,Mac,900,1440,4.916033333333333,
133,default,block2,frank,ai,0.02,3502,hear,41,hear,C,[],24,Yes,,Male,English,Chrome,Mac,900,1440,4.916033333333333,
133,default,block2,pizza,ai,0.99,3982,MC,42,MC,MC,[],24,Yes,,Male,English,Chrome,Mac,900,1440,4.916033333333333,
133,default,block2,garage,ai,0.95,2571,MC,43,MC,MC,[],24,Yes,,Male,English,Chrome,Mac,900,1440,4.916033333333333,
133,default,block2,sophia,ai,0.07,4358,inform,44,inform,C,[],24,Yes,,Male,English,Chrome,Mac,900,1440,4.916033333333333,
133,default,block2,tony,ai,0,2852,demonstrate,45,demonstrate,C,[],24,Yes,,Male,English,Chrome,Mac,900,1440,4.916033333333333,
133,default,block2,muffins,ai,0.96,2224,MC,46,MC,MC,[],24,Yes,,Male,English,Chrome,Mac,900,1440,4.916033333333333,
133,default,block2,jayden,ai,0.04,1859,admit,47,admit,C,[],24,Yes,,Male,English,Chrome,Mac,900,1440,4.916033333333333,
133,default,block2,josie,ai,0.05,1853,establish,48,establish,C,[],24,Yes,,Male,English,Chrome,Mac,900,1440,4.916033333333333,
133,default,block2,josh,ai,0.04,4508,be_right,49,be_right,C,[],24,Yes,,Male,English,Chrome,Mac,900,1440,4.916033333333333,
133,default,block2,emily,ai,0.01,2244,be_annoyed,50,be_annoyed,C,[],24,Yes,,Male,English,Chrome,Mac,900,1440,4.916033333333333,
133,default,block2,owen,ai,0.01,1856,suggest,51,suggest,C,[],24,Yes,,Male,English,Chrome,Mac,900,1440,4.916033333333333,
133,default,block2,jackson,ai,0.02,3926,say,52,say,C,[],24,Yes,,Male,English,Chrome,Mac,900,1440,4.916033333333333,
133,default,block2,olivia,ai,0.02,3280,acknowledge,53,acknowledge,C,[],24,Yes,,Male,English,Chrome,Mac,900,1440,4.916033333333333,
133,default,block2,julian,ai,0.04,1673,announce,54,announce,C,[],24,Yes,,Male,English,Chrome,Mac,900,1440,4.916033333333333,
133,default,block2,isabella,ai,0.04,1584,reveal,55,reveal,C,[],24,Yes,,Male,English,Chrome,Mac,900,1440,4.916033333333333,
133,default,block2,emma,ai,0.02,2028,confess,56,confess,C,[],24,Yes,,Male,English,Chrome,Mac,900,1440,4.916033333333333,
133,default,block2,charley,ai,0.02,2135,discover,57,discover,C,[],24,Yes,,Male,English,Chrome,Mac,900,1440,4.916033333333333,
151,default,block1,garage,projective,1,6798,MC,5,MC,MC,[],39,Yes,I enjoyed the study. Nice!,Male,English,Firefox,Windows,768,1366,6.79705,
151,default,block1,jackson,projective,0.35,13171,confirm,6,confirm,C,[],39,Yes,I enjoyed the study. Nice!,Male,English,Firefox,Windows,768,1366,6.79705,
151,default,block1,sophia,projective,0.2,5941,say,7,say,C,[],39,Yes,I enjoyed the study. Nice!,Male,English,Firefox,Windows,768,1366,6.79705,
151,default,block1,muffins,projective,1,5778,MC,8,MC,MC,[],39,Yes,I enjoyed the study. Nice!,Male,English,Firefox,Windows,768,1366,6.79705,
151,default,block1,frank,projective,0.27,3919,discover,9,discover,C,[],39,Yes,I enjoyed the study. Nice!,Male,English,Firefox,Windows,768,1366,6.79705,
151,default,block1,josh,projective,0.35,5509,reveal,10,reveal,C,[],39,Yes,I enjoyed the study. Nice!,Male,English,Firefox,Windows,768,1366,6.79705,
151,default,block1,emma,projective,0.28,4519,see,11,see,C,[],39,Yes,I enjoyed the study. Nice!,Male,English,Firefox,Windows,768,1366,6.79705,
151,default,block1,isabella,projective,0.2,3338,announce,12,announce,C,[],39,Yes,I enjoyed the study. Nice!,Male,English,Firefox,Windows,768,1366,6.79705,
151,default,block1,danny,projective,0.39,5213,hear,13,hear,C,[],39,Yes,I enjoyed the study. Nice!,Male,English,Firefox,Windows,768,1366,6.79705,
151,default,block1,jon,projective,0.28,2933,pretend,14,pretend,C,[],39,Yes,I enjoyed the study. Nice!,Male,English,Firefox,Windows,768,1366,6.79705,
151,default,block1,charley,projective,0.49,6405,suggest,15,suggest,C,[],39,Yes,I enjoyed the study. Nice!,Male,English,Firefox,Windows,768,1366,6.79705,
151,default,block1,jayden,projective,0.38,3000,inform,16,inform,C,[],39,Yes,I enjoyed the study. Nice!,Male,English,Firefox,Windows,768,1366,6.79705,
151,default,block1,emily,projective,0.45,3507,establish,17,establish,C,[],39,Yes,I enjoyed the study. Nice!,Male,English,Firefox,Windows,768,1366,6.79705,
151,default,block1,josie,projective,0.27,2100,confess,18,confess,C,[],39,Yes,I enjoyed the study. Nice!,Male,English,Firefox,Windows,768,1366,6.79705,
151,default,block1,julian,projective,0,8188,be_right,19,be_right,C,[],39,Yes,I enjoyed the study. Nice!,Male,English,Firefox,Windows,768,1366,6.79705,
151,default,block1,olivia,projective,0.37,6788,prove,20,prove,C,[],39,Yes,I enjoyed the study. Nice!,Male,English,Firefox,Windows,768,1366,6.79705,
151,default,block1,mary,projective,0.29,4147,acknowledge,21,acknowledge,C,[],39,Yes,I enjoyed the study. Nice!,Male,English,Firefox,Windows,768,1366,6.79705,
151,default,block1,owen,projective,0.62,3917,demonstrate,22,demonstrate,C,[],39,Yes,I enjoyed the study. Nice!,Male,English,Firefox,Windows,768,1366,6.79705,
151,default,block1,pizza,projective,1,4468,MC,23,MC,MC,[],39,Yes,I enjoyed the study. Nice!,Male,English,Firefox,Windows,768,1366,6.79705,
151,default,block1,mia,projective,0.34,2861,know,24,know,C,[],39,Yes,I enjoyed the study. Nice!,Male,English,Firefox,Windows,768,1366,6.79705,
151,default,block1,hat,projective,1,6290,MC,25,MC,MC,[],39,Yes,I enjoyed the study. Nice!,Male,English,Firefox,Windows,768,1366,6.79705,
151,default,block1,grace,projective,1,15406,be_annoyed,26,be_annoyed,C,[],39,Yes,I enjoyed the study. Nice!,Male,English,Firefox,Windows,768,1366,6.79705,
151,default,block1,tony,projective,0.34,4849,think,27,think,C,[],39,Yes,I enjoyed the study. Nice!,Male,English,Firefox,Windows,768,1366,6.79705,
151,default,block1,kids,projective,1,3994,MC,28,MC,MC,[],39,Yes,I enjoyed the study. Nice!,Male,English,Firefox,Windows,768,1366,6.79705,
151,default,block1,zoe,projective,0.5,5374,admit,29,admit,C,[],39,Yes,I enjoyed the study. Nice!,Male,English,Firefox,Windows,768,1366,6.79705,
151,default,block1,ballet,projective,1,3434,MC,30,MC,MC,[],39,Yes,I enjoyed the study. Nice!,Male,English,Firefox,Windows,768,1366,6.79705,
151,default,block2,emma,ai,0.24,17616,see,32,see,C,[],39,Yes,I enjoyed the study. Nice!,Male,English,Firefox,Windows,768,1366,6.79705,
151,default,block2,tony,ai,0.28,5031,think,33,think,C,[],39,Yes,I enjoyed the study. Nice!,Male,English,Firefox,Windows,768,1366,6.79705,
151,default,block2,jayden,ai,0.29,3305,inform,34,inform,C,[],39,Yes,I enjoyed the study. Nice!,Male,English,Firefox,Windows,768,1366,6.79705,
151,default,block2,kids,ai,1,4037,MC,35,MC,MC,[],39,Yes,I enjoyed the study. Nice!,Male,English,Firefox,Windows,768,1366,6.79705,
151,default,block2,jackson,ai,0.45,3889,confirm,36,confirm,C,[],39,Yes,I enjoyed the study. Nice!,Male,English,Firefox,Windows,768,1366,6.79705,
151,default,block2,hat,ai,1,4703,MC,37,MC,MC,[],39,Yes,I enjoyed the study. Nice!,Male,English,Firefox,Windows,768,1366,6.79705,
151,default,block2,sophia,ai,0.3,3819,say,38,say,C,[],39,Yes,I enjoyed the study. Nice!,Male,English,Firefox,Windows,768,1366,6.79705,
151,default,block2,julian,ai,0.65,7605,be_right,39,be_right,C,[],39,Yes,I enjoyed the study. Nice!,Male,English,Firefox,Windows,768,1366,6.79705,
151,default,block2,danny,ai,0.35,3406,hear,40,hear,C,[],39,Yes,I enjoyed the study. Nice!,Male,English,Firefox,Windows,768,1366,6.79705,
151,default,block2,frank,ai,0.42,5921,discover,41,discover,C,[],39,Yes,I enjoyed the study. Nice!,Male,English,Firefox,Windows,768,1366,6.79705,
151,default,block2,pizza,ai,1,3429,MC,42,MC,MC,[],39,Yes,I enjoyed the study. Nice!,Male,English,Firefox,Windows,768,1366,6.79705,
151,default,block2,isabella,ai,0.4,3290,announce,43,announce,C,[],39,Yes,I enjoyed the study. Nice!,Male,English,Firefox,Windows,768,1366,6.79705,
151,default,block2,emily,ai,0.31,4369,establish,44,establish,C,[],39,Yes,I enjoyed the study. Nice!,Male,English,Firefox,Windows,768,1366,6.79705,
151,default,block2,charley,ai,0.27,4363,suggest,45,suggest,C,[],39,Yes,I enjoyed the study. Nice!,Male,English,Firefox,Windows,768,1366,6.79705,
151,default,block2,owen,ai,0.33,3967,demonstrate,46,demonstrate,C,[],39,Yes,I enjoyed the study. Nice!,Male,English,Firefox,Windows,768,1366,6.79705,
151,default,block2,garage,ai,1,4645,MC,47,MC,MC,[],39,Yes,I enjoyed the study. Nice!,Male,English,Firefox,Windows,768,1366,6.79705,
151,default,block2,mia,ai,0.71,6980,know,48,know,C,[],39,Yes,I enjoyed the study. Nice!,Male,English,Firefox,Windows,768,1366,6.79705,
151,default,block2,ballet,ai,1,2761,MC,49,MC,MC,[],39,Yes,I enjoyed the study. Nice!,Male,English,Firefox,Windows,768,1366,6.79705,
151,default,block2,josie,ai,0.29,2971,confess,50,confess,C,[],39,Yes,I enjoyed the study. Nice!,Male,English,Firefox,Windows,768,1366,6.79705,
151,default,block2,zoe,ai,0.08,7078,admit,51,admit,C,[],39,Yes,I enjoyed the study. Nice!,Male,English,Firefox,Windows,768,1366,6.79705,
151,default,block2,josh,ai,0.4,3967,reveal,52,reveal,C,[],39,Yes,I enjoyed the study. Nice!,Male,English,Firefox,Windows,768,1366,6.79705,
151,default,block2,muffins,ai,1,7955,MC,53,MC,MC,[],39,Yes,I enjoyed the study. Nice!,Male,English,Firefox,Windows,768,1366,6.79705,
151,default,block2,olivia,ai,0.3,2338,prove,54,prove,C,[],39,Yes,I enjoyed the study. Nice!,Male,English,Firefox,Windows,768,1366,6.79705,
151,default,block2,grace,ai,0.33,2255,be_annoyed,55,be_annoyed,C,[],39,Yes,I enjoyed the study. Nice!,Male,English,Firefox,Windows,768,1366,6.79705,
151,default,block2,jon,ai,0.62,3765,pretend,56,pretend,C,[],39,Yes,I enjoyed the study. Nice!,Male,English,Firefox,Windows,768,1366,6.79705,
151,default,block2,mary,ai,0.34,2773,acknowledge,57,acknowledge,C,[],39,Yes,I enjoyed the study. Nice!,Male,English,Firefox,Windows,768,1366,6.79705,
177,default,block1,josh,ai,0.03,18806,see,5,see,C,[],64,Yes,,Male,English,Chrome,Windows,900,1440,10.126416666666668,
177,default,block1,garage,ai,0.99,6808,MC,6,MC,MC,[],64,Yes,,Male,English,Chrome,Windows,900,1440,10.126416666666668,
177,default,block1,tony,ai,0,9016,discover,7,discover,C,[],64,Yes,,Male,English,Chrome,Windows,900,1440,10.126416666666668,
177,default,block1,zoe,ai,0.82,38143,announce,8,announce,C,[],64,Yes,,Male,English,Chrome,Windows,900,1440,10.126416666666668,
177,default,block1,jackson,ai,0.03,7033,know,9,know,C,[],64,Yes,,Male,English,Chrome,Windows,900,1440,10.126416666666668,
177,default,block1,sophia,ai,0.03,9384,hear,10,hear,C,[],64,Yes,,Male,English,Chrome,Windows,900,1440,10.126416666666668,
177,default,block1,jayden,ai,0.03,10375,suggest,11,suggest,C,[],64,Yes,,Male,English,Chrome,Windows,900,1440,10.126416666666668,
177,default,block1,olivia,ai,0.02,17375,prove,12,prove,C,[],64,Yes,,Male,English,Chrome,Windows,900,1440,10.126416666666668,
177,default,block1,josie,ai,0.02,10135,be_annoyed,13,be_annoyed,C,[],64,Yes,,Male,English,Chrome,Windows,900,1440,10.126416666666668,
177,default,block1,charley,ai,0,20792,be_right,14,be_right,C,[],64,Yes,,Male,English,Chrome,Windows,900,1440,10.126416666666668,
177,default,block1,hat,ai,0.97,6016,MC,15,MC,MC,[],64,Yes,,Male,English,Chrome,Windows,900,1440,10.126416666666668,
177,default,block1,jon,ai,0.78,10975,establish,16,establish,C,[],64,Yes,,Male,English,Chrome,Windows,900,1440,10.126416666666668,
177,default,block1,ballet,ai,0.97,5720,MC,17,MC,MC,[],64,Yes,,Male,English,Chrome,Windows,900,1440,10.126416666666668,
177,default,block1,isabella,ai,0.01,8783,inform,18,inform,C,[],64,Yes,,Male,English,Chrome,Windows,900,1440,10.126416666666668,
177,default,block1,muffins,ai,0.98,7536,MC,19,MC,MC,[],64,Yes,,Male,English,Chrome,Windows,900,1440,10.126416666666668,
177,default,block1,pizza,ai,0.99,5304,MC,20,MC,MC,[],64,Yes,,Male,English,Chrome,Windows,900,1440,10.126416666666668,
177,default,block1,emma,ai,0.01,8280,reveal,21,reveal,C,[],64,Yes,,Male,English,Chrome,Windows,900,1440,10.126416666666668,
177,default,block1,kids,ai,0.99,5488,MC,22,MC,MC,[],64,Yes,,Male,English,Chrome,Windows,900,1440,10.126416666666668,
177,default,block1,emily,ai,0.03,9304,acknowledge,23,acknowledge,C,[],64,Yes,,Male,English,Chrome,Windows,900,1440,10.126416666666668,
177,default,block1,frank,ai,0.29,11616,demonstrate,24,demonstrate,C,[],64,Yes,,Male,English,Chrome,Windows,900,1440,10.126416666666668,
177,default,block1,mia,ai,0.01,9999,confess,25,confess,C,[],64,Yes,,Male,English,Chrome,Windows,900,1440,10.126416666666668,
177,default,block1,mary,ai,0.03,6600,admit,26,admit,C,[],64,Yes,,Male,English,Chrome,Windows,900,1440,10.126416666666668,
177,default,block1,owen,ai,0.99,13911,pretend,27,pretend,C,[],64,Yes,,Male,English,Chrome,Windows,900,1440,10.126416666666668,
177,default,block1,julian,ai,0,7735,confirm,28,confirm,C,[],64,Yes,,Male,English,Chrome,Windows,900,1440,10.126416666666668,
177,default,block1,danny,ai,0.72,15952,say,29,say,C,[],64,Yes,,Male,English,Chrome,Windows,900,1440,10.126416666666668,
177,default,block1,grace,ai,0.8,9599,think,30,think,C,[],64,Yes,,Male,English,Chrome,Windows,900,1440,10.126416666666668,
177,default,block2,hat,projective,0.99,9447,MC,32,MC,MC,[],64,Yes,,Male,English,Chrome,Windows,900,1440,10.126416666666668,
177,default,block2,olivia,projective,0.01,13952,prove,33,prove,C,[],64,Yes,,Male,English,Chrome,Windows,900,1440,10.126416666666668,
177,default,block2,pizza,projective,0.97,3560,MC,34,MC,MC,[],64,Yes,,Male,English,Chrome,Windows,900,1440,10.126416666666668,
177,default,block2,isabella,projective,0.04,9848,inform,35,inform,C,[],64,Yes,,Male,English,Chrome,Windows,900,1440,10.126416666666668,
177,default,block2,josie,projective,0.96,7552,be_annoyed,36,be_annoyed,C,[],64,Yes,,Male,English,Chrome,Windows,900,1440,10.126416666666668,
177,default,block2,danny,projective,0.13,10592,say,37,say,C,[],64,Yes,,Male,English,Chrome,Windows,900,1440,10.126416666666668,
177,default,block2,jayden,projective,0.04,8960,suggest,38,suggest,C,[],64,Yes,,Male,English,Chrome,Windows,900,1440,10.126416666666668,
177,default,block2,mia,projective,0.01,8064,confess,39,confess,C,[],64,Yes,,Male,English,Chrome,Windows,900,1440,10.126416666666668,
177,default,block2,jon,projective,0.03,7263,establish,40,establish,C,[],64,Yes,,Male,English,Chrome,Windows,900,1440,10.126416666666668,
177,default,block2,julian,projective,0,5904,confirm,41,confirm,C,[],64,Yes,,Male,English,Chrome,Windows,900,1440,10.126416666666668,
177,default,block2,owen,projective,0.34,31439,pretend,42,pretend,C,[],64,Yes,,Male,English,Chrome,Windows,900,1440,10.126416666666668,
177,default,block2,frank,projective,0.03,5096,demonstrate,43,demonstrate,C,[],64,Yes,,Male,English,Chrome,Windows,900,1440,10.126416666666668,
177,default,block2,kids,projective,0.96,5792,MC,44,MC,MC,[],64,Yes,,Male,English,Chrome,Windows,900,1440,10.126416666666668,
177,default,block2,mary,projective,0.02,5656,admit,45,admit,C,[],64,Yes,,Male,English,Chrome,Windows,900,1440,10.126416666666668,
177,default,block2,sophia,projective,0.01,5576,hear,46,hear,C,[],64,Yes,,Male,English,Chrome,Windows,900,1440,10.126416666666668,
177,default,block2,ballet,projective,0.99,5496,MC,47,MC,MC,[],64,Yes,,Male,English,Chrome,Windows,900,1440,10.126416666666668,
177,default,block2,josh,projective,0.01,5695,see,48,see,C,[],64,Yes,,Male,English,Chrome,Windows,900,1440,10.126416666666668,
177,default,block2,zoe,projective,0.03,5175,announce,49,announce,C,[],64,Yes,,Male,English,Chrome,Windows,900,1440,10.126416666666668,
177,default,block2,emily,projective,0,5801,acknowledge,50,acknowledge,C,[],64,Yes,,Male,English,Chrome,Windows,900,1440,10.126416666666668,
177,default,block2,muffins,projective,0.98,3615,MC,51,MC,MC,[],64,Yes,,Male,English,Chrome,Windows,900,1440,10.126416666666668,
177,default,block2,charley,projective,0.99,7968,be_right,52,be_right,C,[],64,Yes,,Male,English,Chrome,Windows,900,1440,10.126416666666668,
177,default,block2,tony,projective,0.02,7905,discover,53,discover,C,[],64,Yes,,Male,English,Chrome,Windows,900,1440,10.126416666666668,
177,default,block2,garage,projective,1,7423,MC,54,MC,MC,[],64,Yes,,Male,English,Chrome,Windows,900,1440,10.126416666666668,
177,default,block2,jackson,projective,1,6833,know,55,know,C,[],64,Yes,,Male,English,Chrome,Windows,900,1440,10.126416666666668,
177,default,block2,grace,projective,0.03,12615,think,56,think,C,[],64,Yes,,Male,English,Chrome,Windows,900,1440,10.126416666666668,
177,default,block2,emma,projective,0.02,10272,reveal,57,reveal,C,[],64,Yes,,Male,English,Chrome,Windows,900,1440,10.126416666666668,
365,default,block1,frank,projective,0,17974,prove,5,prove,C,[],34,Yes,,Male,English,Chrome,Windows,1080,1920,9.8185,
365,default,block1,hat,projective,1,7556,MC,6,MC,MC,[],34,Yes,,Male,English,Chrome,Windows,1080,1920,9.8185,
365,default,block1,danny,projective,1,17912,be_right,7,be_right,C,[],34,Yes,,Male,English,Chrome,Windows,1080,1920,9.8185,
365,default,block1,mary,projective,0,12038,think,8,think,C,[],34,Yes,,Male,English,Chrome,Windows,1080,1920,9.8185,
365,default,block1,grace,projective,0,11636,admit,9,admit,C,[],34,Yes,,Male,English,Chrome,Windows,1080,1920,9.8185,
365,default,block1,pizza,projective,1,6263,MC,10,MC,MC,[],34,Yes,,Male,English,Chrome,Windows,1080,1920,9.8185,
365,default,block1,garage,projective,1,7132,MC,11,MC,MC,[],34,Yes,,Male,English,Chrome,Windows,1080,1920,9.8185,
365,default,block1,jayden,projective,0.42,17243,hear,12,hear,C,[],34,Yes,,Male,English,Chrome,Windows,1080,1920,9.8185,
365,default,block1,zoe,projective,1,18925,reveal,13,reveal,C,[],34,Yes,,Male,English,Chrome,Windows,1080,1920,9.8185,
365,default,block1,olivia,projective,0.32,13612,acknowledge,14,acknowledge,C,[],34,Yes,,Male,English,Chrome,Windows,1080,1920,9.8185,
365,default,block1,sophia,projective,1,5654,see,15,see,C,[],34,Yes,,Male,English,Chrome,Windows,1080,1920,9.8185,
365,default,block1,isabella,projective,1,6875,announce,16,announce,C,[],34,Yes,,Male,English,Chrome,Windows,1080,1920,9.8185,
365,default,block1,julian,projective,0.35,15750,demonstrate,17,demonstrate,C,[],34,Yes,,Male,English,Chrome,Windows,1080,1920,9.8185,
365,default,block1,emma,projective,1,8828,discover,18,discover,C,[],34,Yes,,Male,English,Chrome,Windows,1080,1920,9.8185,
