workerid,proliferate.condition.x,block,content,question_type,response,rt,short_trigger,slide_number_in_experiment,trigger,trigger_class,error.x,proliferate.condition.y,age,american,comments,gender,language,error.y,trial
1055,default,block1,danny,ai,0.98,8991,see,5,see,C,NA,default,33,Yes,NA,Female,english,NA,1
1055,default,block1,ballet,ai,0.95,7868,MC,6,MC,MC,NA,default,33,Yes,NA,Female,english,NA,2
1055,default,block1,mary,ai,0.94,7537,announce,7,announce,C,NA,default,33,Yes,NA,Female,english,NA,3
1055,default,block1,emma,ai,0.94,13920,think,8,think,C,NA,default,33,Yes,NA,Female,english,NA,4
1055,default,block1,kids,ai,0.0600000000000001,11353,MC,9,MC,MC,NA,default,33,Yes,NA,Female,english,NA,5
1055,default,block1,owen,ai,0.95,10190,be_right,10,be_right,C,NA,default,33,Yes,NA,Female,english,NA,6
1055,default,block1,jon,ai,0.93,8036,reveal,11,reveal,C,NA,default,33,Yes,NA,Female,english,NA,7
1055,default,block1,jayden,ai,0.9,11231,establish,12,establish,C,NA,default,33,Yes,NA,Female,english,NA,8
1055,default,block1,josh,ai,0.94,21468,inform,13,inform,C,NA,default,33,Yes,NA,Female,english,NA,9
1055,default,block1,garage,ai,0.78,10638,MC,14,MC,MC,NA,default,33,Yes,NA,Female,english,NA,10
1055,default,block1,grace,ai,0.79,7112,confirm,15,confirm,C,NA,default,33,Yes,NA,Female,english,NA,11
1055,default,block1,mia,ai,0.64,7963,hear,16,hear,C,NA,default,33,Yes,NA,Female,english,NA,12
1055,default,block1,josie,ai,0.8,10126,suggest,17,suggest,C,NA,default,33,Yes,NA,Female,english,NA,13
1055,default,block1,jackson,ai,0.85,11277,confess,18,confess,C,NA,default,33,Yes,NA,Female,english,NA,14
1055,default,block1,pizza,ai,0.82,9894,MC,19,MC,MC,NA,default,33,Yes,NA,Female,english,NA,15
1055,default,block1,emily,ai,0.93,7651,prove,20,prove,C,NA,default,33,Yes,NA,Female,english,NA,16
1055,default,block1,isabella,ai,0.89,7881,admit,21,admit,C,NA,default,33,Yes,NA,Female,english,NA,17
1055,default,block1,olivia,ai,0.93,8631,discover,22,discover,C,NA,default,33,Yes,NA,Female,english,NA,18
1055,default,block1,zoe,ai,0.74,22504,acknowledge,23,acknowledge,C,NA,default,33,Yes,NA,Female,english,NA,19
1055,default,block1,muffins,ai,0.11,6578,MC,24,MC,MC,NA,default,33,Yes,NA,Female,english,NA,20
1055,default,block1,hat,ai,0.4,5605,MC,25,MC,MC,NA,default,33,Yes,NA,Female,english,NA,21
1055,default,block1,julian,ai,0.84,19531,know,26,know,C,NA,default,33,Yes,NA,Female,english,NA,22
1055,default,block1,frank,ai,0.42,7028,pretend,27,pretend,C,NA,default,33,Yes,NA,Female,english,NA,23
1055,default,block1,sophia,ai,0.79,5185,be_annoyed,28,be_annoyed,C,NA,default,33,Yes,NA,Female,english,NA,24
1055,default,block1,charley,ai,0.91,34148,demonstrate,29,demonstrate,C,NA,default,33,Yes,NA,Female,english,NA,25
1055,default,block1,tony,ai,0.85,8558,say,30,say,C,NA,default,33,Yes,NA,Female,english,NA,26
1055,default,block2,muffins,projective,0.17,11649,MC,32,MC,MC,NA,default,33,Yes,NA,Female,english,NA,27
1055,default,block2,emma,projective,0.35,28608,think,33,think,C,NA,default,33,Yes,NA,Female,english,NA,28
1055,default,block2,emily,projective,0.9,7948,prove,34,prove,C,NA,default,33,Yes,NA,Female,english,NA,29
1055,default,block2,jon,projective,0.81,6245,reveal,35,reveal,C,NA,default,33,Yes,NA,Female,english,NA,30
1055,default,block2,pizza,projective,0.82,8877,MC,36,MC,MC,NA,default,33,Yes,NA,Female,english,NA,31
1055,default,block2,owen,projective,0.27,12261,be_right,37,be_right,C,NA,default,33,Yes,NA,Female,english,NA,32
1055,default,block2,sophia,projective,0.98,5765,be_annoyed,38,be_annoyed,C,NA,default,33,Yes,NA,Female,english,NA,33
1055,default,block2,isabella,projective,0.95,8397,admit,39,admit,C,NA,default,33,Yes,NA,Female,english,NA,34
1055,default,block2,jackson,projective,0.93,8548,confess,40,confess,C,NA,default,33,Yes,NA,Female,english,NA,35
1055,default,block2,mary,projective,0.93,6045,announce,41,announce,C,NA,default,33,Yes,NA,Female,english,NA,36
1055,default,block2,charley,projective,0.94,12089,demonstrate,42,demonstrate,C,NA,default,33,Yes,NA,Female,english,NA,37
1055,default,block2,garage,projective,0.14,7316,MC,43,MC,MC,NA,default,33,Yes,NA,Female,english,NA,38
1055,default,block2,ballet,projective,0.22,5544,MC,44,MC,MC,NA,default,33,Yes,NA,Female,english,NA,39
1055,default,block2,hat,projective,0.09,4463,MC,45,MC,MC,NA,default,33,Yes,NA,Female,english,NA,40
1055,default,block2,zoe,projective,0.94,4943,acknowledge,46,acknowledge,C,NA,default,33,Yes,NA,Female,english,NA,41
1055,default,block2,julian,projective,0.87,4843,know,47,know,C,NA,default,33,Yes,NA,Female,english,NA,42
1055,default,block2,mia,projective,0.88,4113,hear,48,hear,C,NA,default,33,Yes,NA,Female,english,NA,43
1055,default,block2,josie,projective,0.13,6023,suggest,49,suggest,C,NA,default,33,Yes,NA,Female,english,NA,44
1055,default,block2,josh,projective,0.93,6723,inform,50,inform,C,NA,default,33,Yes,NA,Female,english,NA,45
1055,default,block2,olivia,projective,0.87,4513,discover,51,discover,C,NA,default,33,Yes,NA,Female,english,NA,46
1055,default,block2,kids,projective,0.01,6442,MC,52,MC,MC,NA,default,33,Yes,NA,Female,english,NA,47
1055,default,block2,danny,projective,0.89,6294,see,53,see,C,NA,default,33,Yes,NA,Female,english,NA,48
1055,default,block2,frank,projective,0.1,6353,pretend,54,pretend,C,NA,default,33,Yes,NA,Female,english,NA,49
1055,default,block2,grace,projective,0.5,9264,confirm,55,confirm,C,NA,default,33,Yes,NA,Female,english,NA,50
1055,default,block2,jayden,projective,0.26,8354,establish,56,establish,C,NA,default,33,Yes,NA,Female,english,NA,51
1055,default,block2,tony,projective,0.03,6754,say,57,say,C,NA,default,33,Yes,NA,Female,english,NA,52
1051,default,block1,grace,projective,0.01,8318,be_right,5,be_right,C,NA,default,48,Yes,The second part was really interesting. Strange how the sentences can sometimes make sense and other times not, when they are seemingly the same.,Female,English,NA,1
1051,default,block1,muffins,projective,0.03,7383,MC,6,MC,MC,NA,default,48,Yes,The second part was really interesting. Strange how the sentences can sometimes make sense and other times not, when they are seemingly the same.,Female,English,NA,2
1051,default,block1,pizza,projective,0.48,11728,MC,7,MC,MC,NA,default,48,Yes,The second part was really interesting. Strange how the sentences can sometimes make sense and other times not, when they are seemingly the same.,Female,English,NA,3
1051,default,block1,josie,projective,0.04,7440,say,8,say,C,NA,default,48,Yes,The second part was really interesting. Strange how the sentences can sometimes make sense and other times not, when they are seemingly the same.,Female,English,NA,4
1051,default,block1,tony,projective,0.41,9160,admit,9,admit,C,NA,default,48,Yes,The second part was really interesting. Strange how the sentences can sometimes make sense and other times not, when they are seemingly the same.,Female,English,NA,5
1051,default,block1,jayden,projective,0.72,6664,know,10,know,C,NA,default,48,Yes,The second part was really interesting. Strange how the sentences can sometimes make sense and other times not, when they are seemingly the same.,Female,English,NA,6
1051,default,block1,hat,projective,0,7888,MC,11,MC,MC,NA,default,48,Yes,The second part was really interesting. Strange how the sentences can sometimes make sense and other times not, when they are seemingly the same.,Female,English,NA,7
1051,default,block1,jon,projective,0.82,8144,see,12,see,C,NA,default,48,Yes,The second part was really interesting. Strange how the sentences can sometimes make sense and other times not, when they are seemingly the same.,Female,English,NA,8
1051,default,block1,josh,projective,0.49,8288,prove,13,prove,C,NA,default,48,Yes,The second part was really interesting. Strange how the sentences can sometimes make sense and other times not, when they are seemingly the same.,Female,English,NA,9
1051,default,block1,zoe,projective,0.09,8624,establish,14,establish,C,NA,default,48,Yes,The second part was really interesting. Strange how the sentences can sometimes make sense and other times not, when they are seemingly the same.,Female,English,NA,10
1051,default,block1,sophia,projective,0.41,5768,discover,15,discover,C,NA,default,48,Yes,The second part was really interesting. Strange how the sentences can sometimes make sense and other times not, when they are seemingly the same.,Female,English,NA,11
1051,default,block1,julian,projective,0.05,8632,pretend,16,pretend,C,NA,default,48,Yes,The second part was really interesting. Strange how the sentences can sometimes make sense and other times not, when they are seemingly the same.,Female,English,NA,12
1051,default,block1,emily,projective,0.05,6376,confirm,17,confirm,C,NA,default,48,Yes,The second part was really interesting. Strange how the sentences can sometimes make sense and other times not, when they are seemingly the same.,Female,English,NA,13
1051,default,block1,charley,projective,0.07,8208,suggest,18,suggest,C,NA,default,48,Yes,The second part was really interesting. Strange how the sentences can sometimes make sense and other times not, when they are seemingly the same.,Female,English,NA,14
1051,default,block1,olivia,projective,0.64,7561,inform,19,inform,C,NA,default,48,Yes,The second part was really interesting. Strange how the sentences can sometimes make sense and other times not, when they are seemingly the same.,Female,English,NA,15
1051,default,block1,jackson,projective,0.97,7407,hear,20,hear,C,NA,default,48,Yes,The second part was really interesting. Strange how the sentences can sometimes make sense and other times not, when they are seemingly the same.,Female,English,NA,16
1051,default,block1,ballet,projective,0.07,6680,MC,21,MC,MC,NA,default,48,Yes,The second part was really interesting. Strange how the sentences can sometimes make sense and other times not, when they are seemingly the same.,Female,English,NA,17
1051,default,block1,kids,projective,0.01,8360,MC,22,MC,MC,NA,default,48,Yes,The second part was really interesting. Strange how the sentences can sometimes make sense and other times not, when they are seemingly the same.,Female,English,NA,18
1051,default,block1,danny,projective,0.99,6705,be_annoyed,23,be_annoyed,C,NA,default,48,Yes,The second part was really interesting. Strange how the sentences can sometimes make sense and other times not, when they are seemingly the same.,Female,English,NA,19
1051,default,block1,owen,projective,0.57,6071,acknowledge,24,acknowledge,C,NA,default,48,Yes,The second part was really interesting. Strange how the sentences can sometimes make sense and other times not, when they are seemingly the same.,Female,English,NA,20
1051,default,block1,garage,projective,0.04,8160,MC,25,MC,MC,NA,default,48,Yes,The second part was really interesting. Strange how the sentences can sometimes make sense and other times not, when they are seemingly the same.,Female,English,NA,21
1051,default,block1,mary,projective,0.47,8392,confess,26,confess,C,NA,default,48,Yes,The second part was really interesting. Strange how the sentences can sometimes make sense and other times not, when they are seemingly the same.,Female,English,NA,22
1051,default,block1,frank,projective,0.02,7440,think,27,think,C,NA,default,48,Yes,The second part was really interesting. Strange how the sentences can sometimes make sense and other times not, when they are seemingly the same.,Female,English,NA,23
1051,default,block1,isabella,projective,0.54,8344,announce,28,announce,C,NA,default,48,Yes,The second part was really interesting. Strange how the sentences can sometimes make sense and other times not, when they are seemingly the same.,Female,English,NA,24
1051,default,block1,mia,projective,0.95,6416,reveal,29,reveal,C,NA,default,48,Yes,The second part was really interesting. Strange how the sentences can sometimes make sense and other times not, when they are seemingly the same.,Female,English,NA,25
1051,default,block1,emma,projective,0.45,10488,demonstrate,30,demonstrate,C,NA,default,48,Yes,The second part was really interesting. Strange how the sentences can sometimes make sense and other times not, when they are seemingly the same.,Female,English,NA,26
1051,default,block2,hat,ai,0.15,11318,MC,32,MC,MC,NA,default,48,Yes,The second part was really interesting. Strange how the sentences can sometimes make sense and other times not, when they are seemingly the same.,Female,English,NA,27
1051,default,block2,mary,ai,0.96,7783,confess,33,confess,C,NA,default,48,Yes,The second part was really interesting. Strange how the sentences can sometimes make sense and other times not, when they are seemingly the same.,Female,English,NA,28
1051,default,block2,kids,ai,0.92,8135,MC,34,MC,MC,NA,default,48,Yes,The second part was really interesting. Strange how the sentences can sometimes make sense and other times not, when they are seemingly the same.,Female,English,NA,29
1051,default,block2,garage,ai,0.33,7320,MC,35,MC,MC,NA,default,48,Yes,The second part was really interesting. Strange how the sentences can sometimes make sense and other times not, when they are seemingly the same.,Female,English,NA,30
1051,default,block2,pizza,ai,0.97,7592,MC,36,MC,MC,NA,default,48,Yes,The second part was really interesting. Strange how the sentences can sometimes make sense and other times not, when they are seemingly the same.,Female,English,NA,31
1051,default,block2,emma,ai,0.98,6592,demonstrate,37,demonstrate,C,NA,default,48,Yes,The second part was really interesting. Strange how the sentences can sometimes make sense and other times not, when they are seemingly the same.,Female,English,NA,32
1051,default,block2,ballet,ai,0.96,6784,MC,38,MC,MC,NA,default,48,Yes,The second part was really interesting. Strange how the sentences can sometimes make sense and other times not, when they are seemingly the same.,Female,English,NA,33
1051,default,block2,charley,ai,1,5112,suggest,39,suggest,C,NA,default,48,Yes,The second part was really interesting. Strange how the sentences can sometimes make sense and other times not, when they are seemingly the same.,Female,English,NA,34
1051,default,block2,zoe,ai,0.95,5608,establish,40,establish,C,NA,default,48,Yes,The second part was really interesting. Strange how the sentences can sometimes make sense and other times not, when they are seemingly the same.,Female,English,NA,35
1051,default,block2,emily,ai,0.99,6632,confirm,41,confirm,C,NA,default,48,Yes,The second part was really interesting. Strange how the sentences can sometimes make sense and other times not, when they are seemingly the same.,Female,English,NA,36
1051,default,block2,jon,ai,0.97,9592,see,42,see,C,NA,default,48,Yes,The second part was really interesting. Strange how the sentences can sometimes make sense and other times not, when they are seemingly the same.,Female,English,NA,37
1051,default,block2,mia,ai,0.94,5400,reveal,43,reveal,C,NA,default,48,Yes,The second part was really interesting. Strange how the sentences can sometimes make sense and other times not, when they are seemingly the same.,Female,English,NA,38
1051,default,block2,muffins,ai,0.5,6200,MC,44,MC,MC,NA,default,48,Yes,The second part was really interesting. Strange how the sentences can sometimes make sense and other times not, when they are seemingly the same.,Female,English,NA,39
1051,default,block2,josie,ai,0.99,6016,say,45,say,C,NA,default,48,Yes,The second part was really interesting. Strange how the sentences can sometimes make sense and other times not, when they are seemingly the same.,Female,English,NA,40
1051,default,block2,josh,ai,0.97,9736,prove,46,prove,C,NA,default,48,Yes,The second part was really interesting. Strange how the sentences can sometimes make sense and other times not, when they are seemingly the same.,Female,English,NA,41
1051,default,block2,sophia,ai,0.97,5136,discover,47,discover,C,NA,default,48,Yes,The second part was really interesting. Strange how the sentences can sometimes make sense and other times not, when they are seemingly the same.,Female,English,NA,42
1051,default,block2,grace,ai,0.98,7128,be_right,48,be_right,C,NA,default,48,Yes,The second part was really interesting. Strange how the sentences can sometimes make sense and other times not, when they are seemingly the same.,Female,English,NA,43
1051,default,block2,olivia,ai,0.96,9152,inform,49,inform,C,NA,default,48,Yes,The second part was really interesting. Strange how the sentences can sometimes make sense and other times not, when they are seemingly the same.,Female,English,NA,44
1051,default,block2,jayden,ai,0.99,7120,know,50,know,C,NA,default,48,Yes,The second part was really interesting. Strange how the sentences can sometimes make sense and other times not, when they are seemingly the same.,Female,English,NA,45
1051,default,block2,isabella,ai,0.97,6352,announce,51,announce,C,NA,default,48,Yes,The second part was really interesting. Strange how the sentences can sometimes make sense and other times not, when they are seemingly the same.,Female,English,NA,46
1051,default,block2,frank,ai,0.96,8176,think,52,think,C,NA,default,48,Yes,The second part was really interesting. Strange how the sentences can sometimes make sense and other times not, when they are seemingly the same.,Female,English,NA,47
1051,default,block2,jackson,ai,0.94,6688,hear,53,hear,C,NA,default,48,Yes,The second part was really interesting. Strange how the sentences can sometimes make sense and other times not, when they are seemingly the same.,Female,English,NA,48
1051,default,block2,danny,ai,0.97,4952,be_annoyed,54,be_annoyed,C,NA,default,48,Yes,The second part was really interesting. Strange how the sentences can sometimes make sense and other times not, when they are seemingly the same.,Female,English,NA,49
1051,default,block2,julian,ai,0.22,12249,pretend,55,pretend,C,NA,default,48,Yes,The second part was really interesting. Strange how the sentences can sometimes make sense and other times not, when they are seemingly the same.,Female,English,NA,50
1051,default,block2,owen,ai,0.98,8335,acknowledge,56,acknowledge,C,NA,default,48,Yes,The second part was really interesting. Strange how the sentences can sometimes make sense and other times not, when they are seemingly the same.,Female,English,NA,51
1051,default,block2,tony,ai,0.97,5128,admit,57,admit,C,NA,default,48,Yes,The second part was really interesting. Strange how the sentences can sometimes make sense and other times not, when they are seemingly the same.,Female,English,NA,52
1052,default,block1,isabella,projective,0.48,15262,confess,5,confess,C,NA,default,37,Yes,NA,Female,English,NA,1
1052,default,block1,danny,projective,0.37,7639,demonstrate,6,demonstrate,C,NA,default,37,Yes,NA,Female,English,NA,2
1052,default,block1,mary,projective,0.67,7535,inform,7,inform,C,NA,default,37,Yes,NA,Female,English,NA,3
1052,default,block1,emily,projective,0.86,9939,hear,8,hear,C,NA,default,37,Yes,NA,Female,English,NA,4
1052,default,block1,ballet,projective,0.11,12517,MC,9,MC,MC,NA,default,37,Yes,NA,Female,English,NA,5
1052,default,block1,hat,projective,0.37,5851,MC,10,MC,MC,NA,default,37,Yes,NA,Female,English,NA,6
1052,default,block1,muffins,projective,0.14,6663,MC,11,MC,MC,NA,default,37,Yes,NA,Female,English,NA,7
1052,default,block1,frank,projective,0.71,26621,be_annoyed,12,be_annoyed,C,NA,default,37,Yes,NA,Female,English,NA,8
1052,default,block1,jon,projective,0.85,5641,know,13,know,C,NA,default,37,Yes,NA,Female,English,NA,9
1052,default,block1,olivia,projective,0.66,7388,announce,14,announce,C,NA,default,37,Yes,NA,Female,English,NA,10
1052,default,block1,josh,projective,0.78,5322,reveal,15,reveal,C,NA,default,37,Yes,NA,Female,English,NA,11
1052,default,block1,julian,projective,0.51,10004,establish,16,establish,C,NA,default,37,Yes,NA,Female,English,NA,12
1052,default,block1,mia,projective,0.22,4462,suggest,17,suggest,C,NA,default,37,Yes,NA,Female,English,NA,13
1052,default,block1,grace,projective,0.21,18311,say,18,say,C,NA,default,37,Yes,NA,Female,English,NA,14
1052,default,block1,tony,projective,0.44,6844,admit,19,admit,C,NA,default,37,Yes,NA,Female,English,NA,15
1052,default,block1,owen,projective,0.75,6437,see,20,see,C,NA,default,37,Yes,NA,Female,English,NA,16
1052,default,block1,josie,projective,0.51,10867,confirm,21,confirm,C,NA,default,37,Yes,NA,Female,English,NA,17
1052,default,block1,garage,projective,0.14,6087,MC,22,MC,MC,NA,default,37,Yes,NA,Female,English,NA,18
1052,default,block1,sophia,projective,0.13,5950,pretend,23,pretend,C,NA,default,37,Yes,NA,Female,English,NA,19
1052,default,block1,pizza,projective,0.21,11697,MC,24,MC,MC,NA,default,37,Yes,NA,Female,English,NA,20
1052,default,block1,jackson,projective,0.64,4772,discover,25,discover,C,NA,default,37,Yes,NA,Female,English,NA,21
1052,default,block1,zoe,projective,0.34,7502,think,26,think,C,NA,default,37,Yes,NA,Female,English,NA,22
1052,default,block1,kids,projective,0.3,15670,MC,27,MC,MC,NA,default,37,Yes,NA,Female,English,NA,23
1052,default,block1,charley,projective,0.45,6380,prove,28,prove,C,NA,default,37,Yes,NA,Female,English,NA,24
1052,default,block1,emma,projective,0.65,5275,acknowledge,29,acknowledge,C,NA,default,37,Yes,NA,Female,English,NA,25
1052,default,block1,jayden,projective,0.56,5697,be_right,30,be_right,C,NA,default,37,Yes,NA,Female,English,NA,26
1052,default,block2,danny,ai,0.73,22011,demonstrate,32,demonstrate,C,NA,default,37,Yes,NA,Female,English,NA,27
1052,default,block2,isabella,ai,0.85,9168,confess,33,confess,C,NA,default,37,Yes,NA,Female,English,NA,28
1052,default,block2,emily,ai,0.87,5778,hear,34,hear,C,NA,default,37,Yes,NA,Female,English,NA,29
1052,default,block2,garage,ai,0.12,5722,MC,35,MC,MC,NA,default,37,Yes,NA,Female,English,NA,30
1052,default,block2,julian,ai,0.89,6258,establish,36,establish,C,NA,default,37,Yes,NA,Female,English,NA,31
1052,default,block2,pizza,ai,0.09,7322,MC,37,MC,MC,NA,default,37,Yes,NA,Female,English,NA,32
1052,default,block2,frank,ai,0.91,8014,be_annoyed,38,be_annoyed,C,NA,default,37,Yes,NA,Female,English,NA,33
1052,default,block2,muffins,ai,0.07,29153,MC,39,MC,MC,NA,default,37,Yes,NA,Female,English,NA,34
1052,default,block2,kids,ai,0.0600000000000001,6525,MC,40,MC,MC,NA,default,37,Yes,NA,Female,English,NA,35
1052,default,block2,mia,ai,0.92,6900,suggest,41,suggest,C,NA,default,37,Yes,NA,Female,English,NA,36
1052,default,block2,jayden,ai,0.97,7378,be_right,42,be_right,C,NA,default,37,Yes,NA,Female,English,NA,37
1052,default,block2,jackson,ai,0.98,7354,discover,43,discover,C,NA,default,37,Yes,NA,Female,English,NA,38
1052,default,block2,jon,ai,0.95,22463,know,44,know,C,NA,default,37,Yes,NA,Female,English,NA,39
1052,default,block2,emma,ai,0.96,4332,acknowledge,45,acknowledge,C,NA,default,37,Yes,NA,Female,English,NA,40
1052,default,block2,josh,ai,0.94,4308,reveal,46,reveal,C,NA,default,37,Yes,NA,Female,English,NA,41
1052,default,block2,hat,ai,0.04,8149,MC,47,MC,MC,NA,default,37,Yes,NA,Female,English,NA,42
1052,default,block2,mary,ai,0.97,5193,inform,48,inform,C,NA,default,37,Yes,NA,Female,English,NA,43
1052,default,block2,zoe,ai,0.98,5664,think,49,think,C,NA,default,37,Yes,NA,Female,English,NA,44
1052,default,block2,josie,ai,0.97,4161,confirm,50,confirm,C,NA,default,37,Yes,NA,Female,English,NA,45
1052,default,block2,sophia,ai,0.95,4543,pretend,51,pretend,C,NA,default,37,Yes,NA,Female,English,NA,46
1052,default,block2,olivia,ai,0.95,3584,announce,52,announce,C,NA,default,37,Yes,NA,Female,English,NA,47
1052,default,block2,ballet,ai,0.02,4380,MC,53,MC,MC,NA,default,37,Yes,NA,Female,English,NA,48
1052,default,block2,owen,ai,0.97,6412,see,54,see,C,NA,default,37,Yes,NA,Female,English,NA,49
1052,default,block2,tony,ai,0.97,3502,admit,55,admit,C,NA,default,37,Yes,NA,Female,English,NA,50
1052,default,block2,charley,ai,0.97,5681,prove,56,prove,C,NA,default,37,Yes,NA,Female,English,NA,51
1052,default,block2,grace,ai,0.97,4607,say,57,say,C,NA,default,37,Yes,NA,Female,English,NA,52
1059,default,block1,owen,projective,0,13331,establish,5,establish,C,NA,default,19,Yes,NA,Female,English,NA,1
1059,default,block1,josh,projective,0.99,12277,inform,6,inform,C,NA,default,19,Yes,NA,Female,English,NA,2
1059,default,block1,muffins,projective,0.01,8237,MC,7,MC,MC,NA,default,19,Yes,NA,Female,English,NA,3
1059,default,block1,jayden,projective,0.67,10357,be_right,8,be_right,C,NA,default,19,Yes,NA,Female,English,NA,4
1059,default,block1,mary,projective,0.49,12404,think,9,think,C,NA,default,19,Yes,NA,Female,English,NA,5
1059,default,block1,emily,projective,0.84,15863,reveal,10,reveal,C,NA,default,19,Yes,NA,Female,English,NA,6
1059,default,block1,olivia,projective,0.15,6582,confirm,11,confirm,C,NA,default,19,Yes,NA,Female,English,NA,7
1059,default,block1,jackson,projective,0.39,10794,announce,12,announce,C,NA,default,19,Yes,NA,Female,English,NA,8
1059,default,block1,frank,projective,0.98,5938,discover,13,discover,C,NA,default,19,Yes,NA,Female,English,NA,9
1059,default,block1,grace,projective,1,12689,be_annoyed,14,be_annoyed,C,NA,default,19,Yes,NA,Female,English,NA,10
1059,default,block1,hat,projective,0.08,8100,MC,15,MC,MC,NA,default,19,Yes,NA,Female,English,NA,11
1059,default,block1,tony,projective,0.08,15944,suggest,16,suggest,C,NA,default,19,Yes,NA,Female,English,NA,12
1059,default,block1,josie,projective,0.98,12285,acknowledge,17,acknowledge,C,NA,default,19,Yes,NA,Female,English,NA,13
1059,default,block1,garage,projective,0.05,11161,MC,18,MC,MC,NA,default,19,Yes,NA,Female,English,NA,14
1059,default,block1,jon,projective,0.03,13920,pretend,19,pretend,C,NA,default,19,Yes,NA,Female,English,NA,15
1059,default,block1,sophia,projective,0.85,20698,admit,20,admit,C,NA,default,19,Yes,NA,Female,English,NA,16
1059,default,block1,pizza,projective,0.24,13304,MC,21,MC,MC,NA,default,19,Yes,NA,Female,English,NA,17
1059,default,block1,ballet,projective,0.05,7354,MC,22,MC,MC,NA,default,19,Yes,NA,Female,English,NA,18
1059,default,block1,charley,projective,0.98,7003,see,23,see,C,NA,default,19,Yes,NA,Female,English,NA,19
1059,default,block1,emma,projective,0.12,13213,say,24,say,C,NA,default,19,Yes,NA,Female,English,NA,20
1059,default,block1,mia,projective,0.99,5935,hear,25,hear,C,NA,default,19,Yes,NA,Female,English,NA,21
1059,default,block1,danny,projective,0.99,8045,know,26,know,C,NA,default,19,Yes,NA,Female,English,NA,22
1059,default,block1,julian,projective,0.86,12896,demonstrate,27,demonstrate,C,NA,default,19,Yes,NA,Female,English,NA,23
1059,default,block1,zoe,projective,0.72,14036,confess,28,confess,C,NA,default,19,Yes,NA,Female,English,NA,24
1059,default,block1,isabella,projective,0.22,15600,prove,29,prove,C,NA,default,19,Yes,NA,Female,English,NA,25
1059,default,block1,kids,projective,0,9699,MC,30,MC,MC,NA,default,19,Yes,NA,Female,English,NA,26
1059,default,block2,mary,ai,0.99,13951,think,32,think,C,NA,default,19,Yes,NA,Female,English,NA,27
1059,default,block2,garage,ai,0.76,9718,MC,33,MC,MC,NA,default,19,Yes,NA,Female,English,NA,28
1059,default,block2,josh,ai,1,15466,inform,34,inform,C,NA,default,19,Yes,NA,Female,English,NA,29
1059,default,block2,olivia,ai,0.99,6368,confirm,35,confirm,C,NA,default,19,Yes,NA,Female,English,NA,30
1059,default,block2,kids,ai,1,7284,MC,36,MC,MC,NA,default,19,Yes,NA,Female,English,NA,31
1059,default,block2,emily,ai,1,5912,reveal,37,reveal,C,NA,default,19,Yes,NA,Female,English,NA,32
1059,default,block2,frank,ai,0.99,8904,discover,38,discover,C,NA,default,19,Yes,NA,Female,English,NA,33
1059,default,block2,mia,ai,1,7832,hear,39,hear,C,NA,default,19,Yes,NA,Female,English,NA,34
1059,default,block2,muffins,ai,0,10447,MC,40,MC,MC,NA,default,19,Yes,NA,Female,English,NA,35
1059,default,block2,isabella,ai,0.98,6237,prove,41,prove,C,NA,default,19,Yes,NA,Female,English,NA,36
1059,default,block2,jayden,ai,0.99,5846,be_right,42,be_right,C,NA,default,19,Yes,NA,Female,English,NA,37
1059,default,block2,zoe,ai,0.99,6742,confess,43,confess,C,NA,default,19,Yes,NA,Female,English,NA,38
1059,default,block2,julian,ai,0.99,8024,demonstrate,44,demonstrate,C,NA,default,19,Yes,NA,Female,English,NA,39
1059,default,block2,grace,ai,1,5154,be_annoyed,45,be_annoyed,C,NA,default,19,Yes,NA,Female,English,NA,40
1059,default,block2,emma,ai,0.99,10393,say,46,say,C,NA,default,19,Yes,NA,Female,English,NA,41
1059,default,block2,jon,ai,1,6213,pretend,47,pretend,C,NA,default,19,Yes,NA,Female,English,NA,42
1059,default,block2,owen,ai,1,7226,establish,48,establish,C,NA,default,19,Yes,NA,Female,English,NA,43
1059,default,block2,josie,ai,0.99,6148,acknowledge,49,acknowledge,C,NA,default,19,Yes,NA,Female,English,NA,44
1059,default,block2,ballet,ai,0.86,9211,MC,50,MC,MC,NA,default,19,Yes,NA,Female,English,NA,45
1059,default,block2,tony,ai,1,4995,suggest,51,suggest,C,NA,default,19,Yes,NA,Female,English,NA,46
1059,default,block2,sophia,ai,1,5900,admit,52,admit,C,NA,default,19,Yes,NA,Female,English,NA,47
1059,default,block2,hat,ai,0.45,9681,MC,53,MC,MC,NA,default,19,Yes,NA,Female,English,NA,48
1059,default,block2,pizza,ai,0.58,10057,MC,54,MC,MC,NA,default,19,Yes,NA,Female,English,NA,49
1059,default,block2,jackson,ai,0.99,6111,announce,55,announce,C,NA,default,19,Yes,NA,Female,English,NA,50
1059,default,block2,danny,ai,0.99,4103,know,56,know,C,NA,default,19,Yes,NA,Female,English,NA,51
1059,default,block2,charley,ai,0.99,5076,see,57,see,C,NA,default,19,Yes,NA,Female,English,NA,52
1058,default,block1,danny,ai,1,15490,acknowledge,5,acknowledge,C,NA,default,18,Yes,NA,Female,English,NA,1
1058,default,block1,josie,ai,1,7782,discover,6,discover,C,NA,default,18,Yes,NA,Female,English,NA,2
1058,default,block1,hat,ai,0,14071,MC,7,MC,MC,NA,default,18,Yes,NA,Female,English,NA,3
1058,default,block1,muffins,ai,0,7656,MC,8,MC,MC,NA,default,18,Yes,NA,Female,English,NA,4
1058,default,block1,kids,ai,1,11933,MC,9,MC,MC,NA,default,18,Yes,NA,Female,English,NA,5
1058,default,block1,isabella,ai,1,7717,establish,10,establish,C,NA,default,18,Yes,NA,Female,English,NA,6
1058,default,block1,jon,ai,1,8902,pretend,11,pretend,C,NA,default,18,Yes,NA,Female,English,NA,7
1058,default,block1,sophia,ai,1,7071,say,12,say,C,NA,default,18,Yes,NA,Female,English,NA,8
1058,default,block1,emma,ai,1,4810,announce,13,announce,C,NA,default,18,Yes,NA,Female,English,NA,9
1058,default,block1,ballet,ai,0.02,5726,MC,14,MC,MC,NA,default,18,Yes,NA,Female,English,NA,10
1058,default,block1,zoe,ai,0.99,6322,know,15,know,C,NA,default,18,Yes,NA,Female,English,NA,11
1058,default,block1,pizza,ai,0.32,20110,MC,16,MC,MC,NA,default,18,Yes,NA,Female,English,NA,12
1058,default,block1,emily,ai,0.99,13244,confirm,17,confirm,C,NA,default,18,Yes,NA,Female,English,NA,13
1058,default,block1,jackson,ai,0.99,6696,see,18,see,C,NA,default,18,Yes,NA,Female,English,NA,14
1058,default,block1,mary,ai,1,5936,inform,19,inform,C,NA,default,18,Yes,NA,Female,English,NA,15
1058,default,block1,olivia,ai,0.98,4717,confess,20,confess,C,NA,default,18,Yes,NA,Female,English,NA,16
1058,default,block1,julian,ai,0.98,7478,be_annoyed,21,be_annoyed,C,NA,default,18,Yes,NA,Female,English,NA,17
1058,default,block1,tony,ai,0.99,6035,reveal,22,reveal,C,NA,default,18,Yes,NA,Female,English,NA,18
1058,default,block1,owen,ai,0.98,13682,be_right,23,be_right,C,NA,default,18,Yes,NA,Female,English,NA,19
1058,default,block1,jayden,ai,0.99,4600,demonstrate,24,demonstrate,C,NA,default,18,Yes,NA,Female,English,NA,20
1058,default,block1,frank,ai,0.99,4908,prove,25,prove,C,NA,default,18,Yes,NA,Female,English,NA,21
1058,default,block1,grace,ai,0.98,5584,admit,26,admit,C,NA,default,18,Yes,NA,Female,English,NA,22
1058,default,block1,josh,ai,0.98,6175,hear,27,hear,C,NA,default,18,Yes,NA,Female,English,NA,23
1058,default,block1,mia,ai,0.99,5288,suggest,28,suggest,C,NA,default,18,Yes,NA,Female,English,NA,24
1058,default,block1,charley,ai,0.99,6563,think,29,think,C,NA,default,18,Yes,NA,Female,English,NA,25
1058,default,block1,garage,ai,0,7745,MC,30,MC,MC,NA,default,18,Yes,NA,Female,English,NA,26
1058,default,block2,hat,projective,0.02,9012,MC,32,MC,MC,NA,default,18,Yes,NA,Female,English,NA,27
1058,default,block2,jackson,projective,0.98,7591,see,33,see,C,NA,default,18,Yes,NA,Female,English,NA,28
1058,default,block2,grace,projective,0.99,15125,admit,34,admit,C,NA,default,18,Yes,NA,Female,English,NA,29
1058,default,block2,owen,projective,0.01,11716,be_right,35,be_right,C,NA,default,18,Yes,NA,Female,English,NA,30
1058,default,block2,mia,projective,0.02,9147,suggest,36,suggest,C,NA,default,18,Yes,NA,Female,English,NA,31
1058,default,block2,kids,projective,0.01,9732,MC,37,MC,MC,NA,default,18,Yes,NA,Female,English,NA,32
1058,default,block2,danny,projective,0.98,9315,acknowledge,38,acknowledge,C,NA,default,18,Yes,NA,Female,English,NA,33
1058,default,block2,ballet,projective,0.01,12542,MC,39,MC,MC,NA,default,18,Yes,NA,Female,English,NA,34
1058,default,block2,jon,projective,0.01,10873,pretend,40,pretend,C,NA,default,18,Yes,NA,Female,English,NA,35
1058,default,block2,sophia,projective,0.01,5316,say,41,say,C,NA,default,18,Yes,NA,Female,English,NA,36
1058,default,block2,tony,projective,0,6436,reveal,42,reveal,C,NA,default,18,Yes,NA,Female,English,NA,37
1058,default,block2,josie,projective,0.97,6478,discover,43,discover,C,NA,default,18,Yes,NA,Female,English,NA,38
1058,default,block2,zoe,projective,0.98,4971,know,44,know,C,NA,default,18,Yes,NA,Female,English,NA,39
1058,default,block2,muffins,projective,0.02,6126,MC,45,MC,MC,NA,default,18,Yes,NA,Female,English,NA,40
1058,default,block2,isabella,projective,0.01,9921,establish,46,establish,C,NA,default,18,Yes,NA,Female,English,NA,41
1058,default,block2,josh,projective,0.98,8654,hear,47,hear,C,NA,default,18,Yes,NA,Female,English,NA,42
1058,default,block2,frank,projective,0.01,8450,prove,48,prove,C,NA,default,18,Yes,NA,Female,English,NA,43
1058,default,block2,pizza,projective,0.02,6077,MC,49,MC,MC,NA,default,18,Yes,NA,Female,English,NA,44
1058,default,block2,jayden,projective,0.02,7782,demonstrate,50,demonstrate,C,NA,default,18,Yes,NA,Female,English,NA,45
1058,default,block2,olivia,projective,0.02,11712,confess,51,confess,C,NA,default,18,Yes,NA,Female,English,NA,46
1058,default,block2,emily,projective,0.01,4796,confirm,52,confirm,C,NA,default,18,Yes,NA,Female,English,NA,47
1058,default,block2,garage,projective,0.02,6640,MC,53,MC,MC,NA,default,18,Yes,NA,Female,English,NA,48
1058,default,block2,charley,projective,0.01,7092,think,54,think,C,NA,default,18,Yes,NA,Female,English,NA,49
1058,default,block2,mary,projective,1,10339,inform,55,inform,C,NA,default,18,Yes,NA,Female,English,NA,50
1058,default,block2,emma,projective,0.02,12865,announce,56,announce,C,NA,default,18,Yes,NA,Female,English,NA,51
1058,default,block2,julian,projective,0.99,5564,be_annoyed,57,be_annoyed,C,NA,default,18,Yes,NA,Female,English,NA,52
1053,default,block1,frank,ai,1,28557,discover,5,discover,C,NA,default,22,Yes,interesting study but got a little confusing at times with all of the names for me. had to read some a few times. thank you!,Female,english,NA,1
1053,default,block1,jon,ai,1,13942,know,6,know,C,NA,default,22,Yes,interesting study but got a little confusing at times with all of the names for me. had to read some a few times. thank you!,Female,english,NA,2
1053,default,block1,charley,ai,1,11534,reveal,7,reveal,C,NA,default,22,Yes,interesting study but got a little confusing at times with all of the names for me. had to read some a few times. thank you!,Female,english,NA,3
1053,default,block1,mia,ai,1,27508,inform,8,inform,C,NA,default,22,Yes,interesting study but got a little confusing at times with all of the names for me. had to read some a few times. thank you!,Female,english,NA,4
1053,default,block1,olivia,ai,1,7358,suggest,9,suggest,C,NA,default,22,Yes,interesting study but got a little confusing at times with all of the names for me. had to read some a few times. thank you!,Female,english,NA,5
1053,default,block1,josie,ai,0.98,19873,confirm,10,confirm,C,NA,default,22,Yes,interesting study but got a little confusing at times with all of the names for me. had to read some a few times. thank you!,Female,english,NA,6
1053,default,block1,ballet,ai,0,15124,MC,11,MC,MC,NA,default,22,Yes,interesting study but got a little confusing at times with all of the names for me. had to read some a few times. thank you!,Female,english,NA,7
1053,default,block1,muffins,ai,0,19776,MC,12,MC,MC,NA,default,22,Yes,interesting study but got a little confusing at times with all of the names for me. had to read some a few times. thank you!,Female,english,NA,8
1053,default,block1,emma,ai,0.99,26424,prove,13,prove,C,NA,default,22,Yes,interesting study but got a little confusing at times with all of the names for me. had to read some a few times. thank you!,Female,english,NA,9
1053,default,block1,grace,ai,1,12348,admit,14,admit,C,NA,default,22,Yes,interesting study but got a little confusing at times with all of the names for me. had to read some a few times. thank you!,Female,english,NA,10
1053,default,block1,kids,ai,0.53,11050,MC,15,MC,MC,NA,default,22,Yes,interesting study but got a little confusing at times with all of the names for me. had to read some a few times. thank you!,Female,english,NA,11
1053,default,block1,jackson,ai,0.92,11105,establish,16,establish,C,NA,default,22,Yes,interesting study but got a little confusing at times with all of the names for me. had to read some a few times. thank you!,Female,english,NA,12
1053,default,block1,emily,ai,0.98,15350,think,17,think,C,NA,default,22,Yes,interesting study but got a little confusing at times with all of the names for me. had to read some a few times. thank you!,Female,english,NA,13
1053,default,block1,sophia,ai,0.96,11417,hear,18,hear,C,NA,default,22,Yes,interesting study but got a little confusing at times with all of the names for me. had to read some a few times. thank you!,Female,english,NA,14
1053,default,block1,garage,ai,0.02,11747,MC,19,MC,MC,NA,default,22,Yes,interesting study but got a little confusing at times with all of the names for me. had to read some a few times. thank you!,Female,english,NA,15
1053,default,block1,isabella,ai,0.98,12567,pretend,20,pretend,C,NA,default,22,Yes,interesting study but got a little confusing at times with all of the names for me. had to read some a few times. thank you!,Female,english,NA,16
1053,default,block1,tony,ai,0.98,6569,announce,21,announce,C,NA,default,22,Yes,interesting study but got a little confusing at times with all of the names for me. had to read some a few times. thank you!,Female,english,NA,17
1053,default,block1,hat,ai,0.01,6960,MC,22,MC,MC,NA,default,22,Yes,interesting study but got a little confusing at times with all of the names for me. had to read some a few times. thank you!,Female,english,NA,18
1053,default,block1,jayden,ai,0.99,6769,acknowledge,23,acknowledge,C,NA,default,22,Yes,interesting study but got a little confusing at times with all of the names for me. had to read some a few times. thank you!,Female,english,NA,19
1053,default,block1,pizza,ai,0.34,25374,MC,24,MC,MC,NA,default,22,Yes,interesting study but got a little confusing at times with all of the names for me. had to read some a few times. thank you!,Female,english,NA,20
1053,default,block1,owen,ai,0.97,22754,say,25,say,C,NA,default,22,Yes,interesting study but got a little confusing at times with all of the names for me. had to read some a few times. thank you!,Female,english,NA,21
1053,default,block1,danny,ai,0.99,10234,be_right,26,be_right,C,NA,default,22,Yes,interesting study but got a little confusing at times with all of the names for me. had to read some a few times. thank you!,Female,english,NA,22
1053,default,block1,julian,ai,0.99,10798,see,27,see,C,NA,default,22,Yes,interesting study but got a little confusing at times with all of the names for me. had to read some a few times. thank you!,Female,english,NA,23
1053,default,block1,josh,ai,0.99,7721,be_annoyed,28,be_annoyed,C,NA,default,22,Yes,interesting study but got a little confusing at times with all of the names for me. had to read some a few times. thank you!,Female,english,NA,24
1053,default,block1,zoe,ai,0.98,40480,confess,29,confess,C,NA,default,22,Yes,interesting study but got a little confusing at times with all of the names for me. had to read some a few times. thank you!,Female,english,NA,25
1053,default,block1,mary,ai,1,8364,demonstrate,30,demonstrate,C,NA,default,22,Yes,interesting study but got a little confusing at times with all of the names for me. had to read some a few times. thank you!,Female,english,NA,26
1053,default,block2,hat,projective,0,12581,MC,32,MC,MC,NA,default,22,Yes,interesting study but got a little confusing at times with all of the names for me. had to read some a few times. thank you!,Female,english,NA,27
1053,default,block2,charley,projective,0.93,15262,reveal,33,reveal,C,NA,default,22,Yes,interesting study but got a little confusing at times with all of the names for me. had to read some a few times. thank you!,Female,english,NA,28
1053,default,block2,pizza,projective,0.01,7376,MC,34,MC,MC,NA,default,22,Yes,interesting study but got a little confusing at times with all of the names for me. had to read some a few times. thank you!,Female,english,NA,29
1053,default,block2,jackson,projective,0.94,8442,establish,35,establish,C,NA,default,22,Yes,interesting study but got a little confusing at times with all of the names for me. had to read some a few times. thank you!,Female,english,NA,30
1053,default,block2,julian,projective,0.91,6954,see,36,see,C,NA,default,22,Yes,interesting study but got a little confusing at times with all of the names for me. had to read some a few times. thank you!,Female,english,NA,31
1053,default,block2,olivia,projective,0.03,8852,suggest,37,suggest,C,NA,default,22,Yes,interesting study but got a little confusing at times with all of the names for me. had to read some a few times. thank you!,Female,english,NA,32
1053,default,block2,isabella,projective,0.02,13898,pretend,38,pretend,C,NA,default,22,Yes,interesting study but got a little confusing at times with all of the names for me. had to read some a few times. thank you!,Female,english,NA,33
1053,default,block2,josie,projective,0.02,8256,confirm,39,confirm,C,NA,default,22,Yes,interesting study but got a little confusing at times with all of the names for me. had to read some a few times. thank you!,Female,english,NA,34
1053,default,block2,jon,projective,0.93,91978,know,40,know,C,NA,default,22,Yes,interesting study but got a little confusing at times with all of the names for me. had to read some a few times. thank you!,Female,english,NA,35
1053,default,block2,muffins,projective,0,46224,MC,41,MC,MC,NA,default,22,Yes,interesting study but got a little confusing at times with all of the names for me. had to read some a few times. thank you!,Female,english,NA,36
1053,default,block2,grace,projective,0.99,6841,admit,42,admit,C,NA,default,22,Yes,interesting study but got a little confusing at times with all of the names for me. had to read some a few times. thank you!,Female,english,NA,37
1053,default,block2,frank,projective,0.96,4326,discover,43,discover,C,NA,default,22,Yes,interesting study but got a little confusing at times with all of the names for me. had to read some a few times. thank you!,Female,english,NA,38
1053,default,block2,tony,projective,0.42,9770,announce,44,announce,C,NA,default,22,Yes,interesting study but got a little confusing at times with all of the names for me. had to read some a few times. thank you!,Female,english,NA,39
1053,default,block2,jayden,projective,0.98,8539,acknowledge,45,acknowledge,C,NA,default,22,Yes,interesting study but got a little confusing at times with all of the names for me. had to read some a few times. thank you!,Female,english,NA,40
1053,default,block2,mia,projective,0.94,10487,inform,46,inform,C,NA,default,22,Yes,interesting study but got a little confusing at times with all of the names for me. had to read some a few times. thank you!,Female,english,NA,41
1053,default,block2,mary,projective,0.56,6031,demonstrate,47,demonstrate,C,NA,default,22,Yes,interesting study but got a little confusing at times with all of the names for me. had to read some a few times. thank you!,Female,english,NA,42
1053,default,block2,josh,projective,0.95,9439,be_annoyed,48,be_annoyed,C,NA,default,22,Yes,interesting study but got a little confusing at times with all of the names for me. had to read some a few times. thank you!,Female,english,NA,43
1053,default,block2,ballet,projective,0,7257,MC,49,MC,MC,NA,default,22,Yes,interesting study but got a little confusing at times with all of the names for me. had to read some a few times. thank you!,Female,english,NA,44
1053,default,block2,zoe,projective,0.48,8847,confess,50,confess,C,NA,default,22,Yes,interesting study but got a little confusing at times with all of the names for me. had to read some a few times. thank you!,Female,english,NA,45
1053,default,block2,danny,projective,0,5198,be_right,51,be_right,C,NA,default,22,Yes,interesting study but got a little confusing at times with all of the names for me. had to read some a few times. thank you!,Female,english,NA,46
1053,default,block2,kids,projective,0,7623,MC,52,MC,MC,NA,default,22,Yes,interesting study but got a little confusing at times with all of the names for me. had to read some a few times. thank you!,Female,english,NA,47
1053,default,block2,emily,projective,0,13115,think,53,think,C,NA,default,22,Yes,interesting study but got a little confusing at times with all of the names for me. had to read some a few times. thank you!,Female,english,NA,48
1053,default,block2,owen,projective,0,10644,say,54,say,C,NA,default,22,Yes,interesting study but got a little confusing at times with all of the names for me. had to read some a few times. thank you!,Female,english,NA,49
1053,default,block2,sophia,projective,0.98,8865,hear,55,hear,C,NA,default,22,Yes,interesting study but got a little confusing at times with all of the names for me. had to read some a few times. thank you!,Female,english,NA,50
1053,default,block2,emma,projective,0.02,4837,prove,56,prove,C,NA,default,22,Yes,interesting study but got a little confusing at times with all of the names for me. had to read some a few times. thank you!,Female,english,NA,51
1053,default,block2,garage,projective,0,5685,MC,57,MC,MC,NA,default,22,Yes,interesting study but got a little confusing at times with all of the names for me. had to read some a few times. thank you!,Female,english,NA,52
1057,default,block1,josie,ai,1,17468,hear,5,hear,C,NA,default,31,Yes,NA,Female,english,NA,1
1057,default,block1,emma,ai,0.96,5750,see,6,see,C,NA,default,31,Yes,NA,Female,english,NA,2
1057,default,block1,jon,ai,0.97,11873,acknowledge,7,acknowledge,C,NA,default,31,Yes,NA,Female,english,NA,3
1057,default,block1,kids,ai,0.02,19590,MC,8,MC,MC,NA,default,31,Yes,NA,Female,english,NA,4
1057,default,block1,mary,ai,0.98,9931,be_annoyed,9,be_annoyed,C,NA,default,31,Yes,NA,Female,english,NA,5
1057,default,block1,zoe,ai,0.98,11079,confirm,10,confirm,C,NA,default,31,Yes,NA,Female,english,NA,6
1057,default,block1,sophia,ai,0.97,7948,reveal,11,reveal,C,NA,default,31,Yes,NA,Female,english,NA,7
1057,default,block1,garage,ai,0.02,12229,MC,12,MC,MC,NA,default,31,Yes,NA,Female,english,NA,8
1057,default,block1,danny,ai,0.96,20369,be_right,13,be_right,C,NA,default,31,Yes,NA,Female,english,NA,9
1057,default,block1,charley,ai,0.97,10561,know,14,know,C,NA,default,31,Yes,NA,Female,english,NA,10
1057,default,block1,jackson,ai,0.97,13183,announce,15,announce,C,NA,default,31,Yes,NA,Female,english,NA,11
1057,default,block1,olivia,ai,0.97,13671,pretend,16,pretend,C,NA,default,31,Yes,NA,Female,english,NA,12
1057,default,block1,grace,ai,0.98,12913,inform,17,inform,C,NA,default,31,Yes,NA,Female,english,NA,13
1057,default,block1,hat,ai,0.01,11559,MC,18,MC,MC,NA,default,31,Yes,NA,Female,english,NA,14
1057,default,block1,pizza,ai,0.01,15639,MC,19,MC,MC,NA,default,31,Yes,NA,Female,english,NA,15
1057,default,block1,frank,ai,0.97,5086,admit,20,admit,C,NA,default,31,Yes,NA,Female,english,NA,16
1057,default,block1,tony,ai,0.97,5102,think,21,think,C,NA,default,31,Yes,NA,Female,english,NA,17
1057,default,block1,mia,ai,0.98,7137,say,22,say,C,NA,default,31,Yes,NA,Female,english,NA,18
1057,default,block1,ballet,ai,0.04,6509,MC,23,MC,MC,NA,default,31,Yes,NA,Female,english,NA,19
1057,default,block1,josh,ai,0.99,5034,confess,24,confess,C,NA,default,31,Yes,NA,Female,english,NA,20
1057,default,block1,owen,ai,0.98,14930,discover,25,discover,C,NA,default,31,Yes,NA,Female,english,NA,21
1057,default,block1,emily,ai,0.99,12369,prove,26,prove,C,NA,default,31,Yes,NA,Female,english,NA,22
1057,default,block1,isabella,ai,0.98,6676,demonstrate,27,demonstrate,C,NA,default,31,Yes,NA,Female,english,NA,23
1057,default,block1,julian,ai,0.98,3599,establish,28,establish,C,NA,default,31,Yes,NA,Female,english,NA,24
1057,default,block1,muffins,ai,0.02,5177,MC,29,MC,MC,NA,default,31,Yes,NA,Female,english,NA,25
1057,default,block1,jayden,ai,0.97,7271,suggest,30,suggest,C,NA,default,31,Yes,NA,Female,english,NA,26
1057,default,block2,pizza,projective,0.03,13282,MC,32,MC,MC,NA,default,31,Yes,NA,Female,english,NA,27
1057,default,block2,jon,projective,0.99,9995,acknowledge,33,acknowledge,C,NA,default,31,Yes,NA,Female,english,NA,28
1057,default,block2,julian,projective,0.03,8983,establish,34,establish,C,NA,default,31,Yes,NA,Female,english,NA,29
1057,default,block2,tony,projective,0.02,7064,think,35,think,C,NA,default,31,Yes,NA,Female,english,NA,30
1057,default,block2,mia,projective,0.03,7053,say,36,say,C,NA,default,31,Yes,NA,Female,english,NA,31
1057,default,block2,sophia,projective,0.03,4135,reveal,37,reveal,C,NA,default,31,Yes,NA,Female,english,NA,32
1057,default,block2,ballet,projective,0.02,7957,MC,38,MC,MC,NA,default,31,Yes,NA,Female,english,NA,33
1057,default,block2,jackson,projective,0.29,12538,announce,39,announce,C,NA,default,31,Yes,NA,Female,english,NA,34
1057,default,block2,hat,projective,0.02,7168,MC,40,MC,MC,NA,default,31,Yes,NA,Female,english,NA,35
1057,default,block2,isabella,projective,0.67,13965,demonstrate,41,demonstrate,C,NA,default,31,Yes,NA,Female,english,NA,36
1057,default,block2,olivia,projective,0.27,19338,pretend,42,pretend,C,NA,default,31,Yes,NA,Female,english,NA,37
1057,default,block2,emily,projective,0.07,10390,prove,43,prove,C,NA,default,31,Yes,NA,Female,english,NA,38
1057,default,block2,muffins,projective,0.03,5907,MC,44,MC,MC,NA,default,31,Yes,NA,Female,english,NA,39
1057,default,block2,josie,projective,0.06,7967,hear,45,hear,C,NA,default,31,Yes,NA,Female,english,NA,40
1057,default,block2,owen,projective,0.66,7532,discover,46,discover,C,NA,default,31,Yes,NA,Female,english,NA,41
1057,default,block2,garage,projective,0.05,7449,MC,47,MC,MC,NA,default,31,Yes,NA,Female,english,NA,42
1057,default,block2,emma,projective,0.9,10166,see,48,see,C,NA,default,31,Yes,NA,Female,english,NA,43
1057,default,block2,kids,projective,0.12,7404,MC,49,MC,MC,NA,default,31,Yes,NA,Female,english,NA,44
1057,default,block2,zoe,projective,0.25,8400,confirm,50,confirm,C,NA,default,31,Yes,NA,Female,english,NA,45
1057,default,block2,mary,projective,0.93,7859,be_annoyed,51,be_annoyed,C,NA,default,31,Yes,NA,Female,english,NA,46
1057,default,block2,charley,projective,0.92,4795,know,52,know,C,NA,default,31,Yes,NA,Female,english,NA,47
1057,default,block2,grace,projective,0.9,6834,inform,53,inform,C,NA,default,31,Yes,NA,Female,english,NA,48
1057,default,block2,frank,projective,0.72,13292,admit,54,admit,C,NA,default,31,Yes,NA,Female,english,NA,49
1057,default,block2,josh,projective,0.68,10141,confess,55,confess,C,NA,default,31,Yes,NA,Female,english,NA,50
1057,default,block2,danny,projective,0.25,7391,be_right,56,be_right,C,NA,default,31,Yes,NA,Female,english,NA,51
1057,default,block2,jayden,projective,0.28,21925,suggest,57,suggest,C,NA,default,31,Yes,NA,Female,english,NA,52
1054,default,block1,frank,projective,0.95,13908,know,5,know,C,NA,default,32,Yes,Some of the sentence structures were very confusing/they were used in a way that I<U+2019>m not use to hearing.,Female,English,NA,1
1054,default,block1,ballet,projective,0.09,13948,MC,6,MC,MC,NA,default,32,Yes,Some of the sentence structures were very confusing/they were used in a way that I<U+2019>m not use to hearing.,Female,English,NA,2
1054,default,block1,mary,projective,0,41756,pretend,7,pretend,C,NA,default,32,Yes,Some of the sentence structures were very confusing/they were used in a way that I<U+2019>m not use to hearing.,Female,English,NA,3
1054,default,block1,garage,projective,0.14,25676,MC,8,MC,MC,NA,default,32,Yes,Some of the sentence structures were very confusing/they were used in a way that I<U+2019>m not use to hearing.,Female,English,NA,4
1054,default,block1,kids,projective,0.12,21125,MC,9,MC,MC,NA,default,32,Yes,Some of the sentence structures were very confusing/they were used in a way that I<U+2019>m not use to hearing.,Female,English,NA,5
1054,default,block1,hat,projective,0.18,20990,MC,10,MC,MC,NA,default,32,Yes,Some of the sentence structures were very confusing/they were used in a way that I<U+2019>m not use to hearing.,Female,English,NA,6
1054,default,block1,isabella,projective,0.99,16149,hear,11,hear,C,NA,default,32,Yes,Some of the sentence structures were very confusing/they were used in a way that I<U+2019>m not use to hearing.,Female,English,NA,7
1054,default,block1,jackson,projective,0.92,22506,establish,12,establish,C,NA,default,32,Yes,Some of the sentence structures were very confusing/they were used in a way that I<U+2019>m not use to hearing.,Female,English,NA,8
1054,default,block1,danny,projective,0.9,10425,acknowledge,13,acknowledge,C,NA,default,32,Yes,Some of the sentence structures were very confusing/they were used in a way that I<U+2019>m not use to hearing.,Female,English,NA,9
1054,default,block1,muffins,projective,0.03,12945,MC,14,MC,MC,NA,default,32,Yes,Some of the sentence structures were very confusing/they were used in a way that I<U+2019>m not use to hearing.,Female,English,NA,10
1054,default,block1,charley,projective,0.95,13393,see,15,see,C,NA,default,32,Yes,Some of the sentence structures were very confusing/they were used in a way that I<U+2019>m not use to hearing.,Female,English,NA,11
1054,default,block1,jon,projective,0.73,14186,reveal,16,reveal,C,NA,default,32,Yes,Some of the sentence structures were very confusing/they were used in a way that I<U+2019>m not use to hearing.,Female,English,NA,12
1054,default,block1,julian,projective,0.24,16631,say,17,say,C,NA,default,32,Yes,Some of the sentence structures were very confusing/they were used in a way that I<U+2019>m not use to hearing.,Female,English,NA,13
1054,default,block1,sophia,projective,0,9027,be_right,18,be_right,C,NA,default,32,Yes,Some of the sentence structures were very confusing/they were used in a way that I<U+2019>m not use to hearing.,Female,English,NA,14
1054,default,block1,jayden,projective,0,26697,confirm,19,confirm,C,NA,default,32,Yes,Some of the sentence structures were very confusing/they were used in a way that I<U+2019>m not use to hearing.,Female,English,NA,15
1054,default,block1,owen,projective,0.65,42630,confess,20,confess,C,NA,default,32,Yes,Some of the sentence structures were very confusing/they were used in a way that I<U+2019>m not use to hearing.,Female,English,NA,16
1054,default,block1,tony,projective,0.2,10497,prove,21,prove,C,NA,default,32,Yes,Some of the sentence structures were very confusing/they were used in a way that I<U+2019>m not use to hearing.,Female,English,NA,17
1054,default,block1,josie,projective,0.05,21313,think,22,think,C,NA,default,32,Yes,Some of the sentence structures were very confusing/they were used in a way that I<U+2019>m not use to hearing.,Female,English,NA,18
1054,default,block1,olivia,projective,0.28,33753,admit,23,admit,C,NA,default,32,Yes,Some of the sentence structures were very confusing/they were used in a way that I<U+2019>m not use to hearing.,Female,English,NA,19
1054,default,block1,zoe,projective,0.97,14587,inform,24,inform,C,NA,default,32,Yes,Some of the sentence structures were very confusing/they were used in a way that I<U+2019>m not use to hearing.,Female,English,NA,20
1054,default,block1,grace,projective,0.7,14992,suggest,25,suggest,C,NA,default,32,Yes,Some of the sentence structures were very confusing/they were used in a way that I<U+2019>m not use to hearing.,Female,English,NA,21
1054,default,block1,emma,projective,0.19,45360,demonstrate,26,demonstrate,C,NA,default,32,Yes,Some of the sentence structures were very confusing/they were used in a way that I<U+2019>m not use to hearing.,Female,English,NA,22
1054,default,block1,pizza,projective,0,19055,MC,27,MC,MC,NA,default,32,Yes,Some of the sentence structures were very confusing/they were used in a way that I<U+2019>m not use to hearing.,Female,English,NA,23
1054,default,block1,josh,projective,0.99,17333,discover,28,discover,C,NA,default,32,Yes,Some of the sentence structures were very confusing/they were used in a way that I<U+2019>m not use to hearing.,Female,English,NA,24
1054,default,block1,emily,projective,0.97,11343,announce,29,announce,C,NA,default,32,Yes,Some of the sentence structures were very confusing/they were used in a way that I<U+2019>m not use to hearing.,Female,English,NA,25
1054,default,block1,mia,projective,0.96,9138,be_annoyed,30,be_annoyed,C,NA,default,32,Yes,Some of the sentence structures were very confusing/they were used in a way that I<U+2019>m not use to hearing.,Female,English,NA,26
1054,default,block2,ballet,ai,0.16,12223,MC,32,MC,MC,NA,default,32,Yes,Some of the sentence structures were very confusing/they were used in a way that I<U+2019>m not use to hearing.,Female,English,NA,27
1054,default,block2,charley,ai,0.07,10194,see,33,see,C,NA,default,32,Yes,Some of the sentence structures were very confusing/they were used in a way that I<U+2019>m not use to hearing.,Female,English,NA,28
1054,default,block2,grace,ai,0.34,26398,suggest,34,suggest,C,NA,default,32,Yes,Some of the sentence structures were very confusing/they were used in a way that I<U+2019>m not use to hearing.,Female,English,NA,29
1054,default,block2,josh,ai,0.84,14023,discover,35,discover,C,NA,default,32,Yes,Some of the sentence structures were very confusing/they were used in a way that I<U+2019>m not use to hearing.,Female,English,NA,30
1054,default,block2,tony,ai,0.98,14013,prove,36,prove,C,NA,default,32,Yes,Some of the sentence structures were very confusing/they were used in a way that I<U+2019>m not use to hearing.,Female,English,NA,31
1054,default,block2,frank,ai,0.99,14039,know,37,know,C,NA,default,32,Yes,Some of the sentence structures were very confusing/they were used in a way that I<U+2019>m not use to hearing.,Female,English,NA,32
1054,default,block2,julian,ai,0.99,9261,say,38,say,C,NA,default,32,Yes,Some of the sentence structures were very confusing/they were used in a way that I<U+2019>m not use to hearing.,Female,English,NA,33
1054,default,block2,jackson,ai,0.96,13097,establish,39,establish,C,NA,default,32,Yes,Some of the sentence structures were very confusing/they were used in a way that I<U+2019>m not use to hearing.,Female,English,NA,34
1054,default,block2,muffins,ai,0.01,20223,MC,40,MC,MC,NA,default,32,Yes,Some of the sentence structures were very confusing/they were used in a way that I<U+2019>m not use to hearing.,Female,English,NA,35
1054,default,block2,mia,ai,1,10455,be_annoyed,41,be_annoyed,C,NA,default,32,Yes,Some of the sentence structures were very confusing/they were used in a way that I<U+2019>m not use to hearing.,Female,English,NA,36
1054,default,block2,sophia,ai,0.97,20676,be_right,42,be_right,C,NA,default,32,Yes,Some of the sentence structures were very confusing/they were used in a way that I<U+2019>m not use to hearing.,Female,English,NA,37
1054,default,block2,hat,ai,0.05,6987,MC,43,MC,MC,NA,default,32,Yes,Some of the sentence structures were very confusing/they were used in a way that I<U+2019>m not use to hearing.,Female,English,NA,38
1054,default,block2,isabella,ai,0.96,6901,hear,44,hear,C,NA,default,32,Yes,Some of the sentence structures were very confusing/they were used in a way that I<U+2019>m not use to hearing.,Female,English,NA,39
1054,default,block2,jon,ai,0.96,6109,reveal,45,reveal,C,NA,default,32,Yes,Some of the sentence structures were very confusing/they were used in a way that I<U+2019>m not use to hearing.,Female,English,NA,40
1054,default,block2,zoe,ai,0.99,9748,inform,46,inform,C,NA,default,32,Yes,Some of the sentence structures were very confusing/they were used in a way that I<U+2019>m not use to hearing.,Female,English,NA,41
1054,default,block2,josie,ai,0.35,36423,think,47,think,C,NA,default,32,Yes,Some of the sentence structures were very confusing/they were used in a way that I<U+2019>m not use to hearing.,Female,English,NA,42
1054,default,block2,mary,ai,0.95,11369,pretend,48,pretend,C,NA,default,32,Yes,Some of the sentence structures were very confusing/they were used in a way that I<U+2019>m not use to hearing.,Female,English,NA,43
1054,default,block2,kids,ai,0.68,19453,MC,49,MC,MC,NA,default,32,Yes,Some of the sentence structures were very confusing/they were used in a way that I<U+2019>m not use to hearing.,Female,English,NA,44
1054,default,block2,olivia,ai,0.96,7935,admit,50,admit,C,NA,default,32,Yes,Some of the sentence structures were very confusing/they were used in a way that I<U+2019>m not use to hearing.,Female,English,NA,45
1054,default,block2,garage,ai,0,13325,MC,51,MC,MC,NA,default,32,Yes,Some of the sentence structures were very confusing/they were used in a way that I<U+2019>m not use to hearing.,Female,English,NA,46
1054,default,block2,pizza,ai,0.01,14706,MC,52,MC,MC,NA,default,32,Yes,Some of the sentence structures were very confusing/they were used in a way that I<U+2019>m not use to hearing.,Female,English,NA,47
1054,default,block2,danny,ai,0.96,10145,acknowledge,53,acknowledge,C,NA,default,32,Yes,Some of the sentence structures were very confusing/they were used in a way that I<U+2019>m not use to hearing.,Female,English,NA,48
1054,default,block2,emily,ai,1,17312,announce,54,announce,C,NA,default,32,Yes,Some of the sentence structures were very confusing/they were used in a way that I<U+2019>m not use to hearing.,Female,English,NA,49
1054,default,block2,owen,ai,0.99,9453,confess,55,confess,C,NA,default,32,Yes,Some of the sentence structures were very confusing/they were used in a way that I<U+2019>m not use to hearing.,Female,English,NA,50
1054,default,block2,emma,ai,0.99,10715,demonstrate,56,demonstrate,C,NA,default,32,Yes,Some of the sentence structures were very confusing/they were used in a way that I<U+2019>m not use to hearing.,Female,English,NA,51
1054,default,block2,jayden,ai,0.99,7341,confirm,57,confirm,C,NA,default,32,Yes,Some of the sentence structures were very confusing/they were used in a way that I<U+2019>m not use to hearing.,Female,English,NA,52
1061,default,block1,grace,ai,0.98,8802,say,5,say,C,NA,default,23,Yes,NA,Female,English,NA,1
1061,default,block1,danny,ai,0.97,6532,be_right,6,be_right,C,NA,default,23,Yes,NA,Female,English,NA,2
1061,default,block1,muffins,ai,0.02,8337,MC,7,MC,MC,NA,default,23,Yes,NA,Female,English,NA,3
1061,default,block1,hat,ai,0.08,18599,MC,8,MC,MC,NA,default,23,Yes,NA,Female,English,NA,4
1061,default,block1,garage,ai,0.09,7055,MC,9,MC,MC,NA,default,23,Yes,NA,Female,English,NA,5
1061,default,block1,pizza,ai,0.07,10425,MC,10,MC,MC,NA,default,23,Yes,NA,Female,English,NA,6
1061,default,block1,josie,ai,1,6852,see,11,see,C,NA,default,23,Yes,NA,Female,English,NA,7
1061,default,block1,olivia,ai,0.96,19639,pretend,12,pretend,C,NA,default,23,Yes,NA,Female,English,NA,8
1061,default,block1,charley,ai,0.99,10682,establish,13,establish,C,NA,default,23,Yes,NA,Female,English,NA,9
1061,default,block1,kids,ai,0.02,8299,MC,14,MC,MC,NA,default,23,Yes,NA,Female,English,NA,10
1061,default,block1,jon,ai,0.99,7260,suggest,15,suggest,C,NA,default,23,Yes,NA,Female,English,NA,11
1061,default,block1,owen,ai,1,6462,know,16,know,C,NA,default,23,Yes,NA,Female,English,NA,12
1061,default,block1,ballet,ai,0.05,8045,MC,17,MC,MC,NA,default,23,Yes,NA,Female,English,NA,13
1061,default,block1,frank,ai,0.96,5131,discover,18,discover,C,NA,default,23,Yes,NA,Female,English,NA,14
1061,default,block1,emily,ai,0.98,5306,confess,19,confess,C,NA,default,23,Yes,NA,Female,English,NA,15
1061,default,block1,sophia,ai,0.95,11418,confirm,20,confirm,C,NA,default,23,Yes,NA,Female,English,NA,16
1061,default,block1,tony,ai,0.96,4285,reveal,21,reveal,C,NA,default,23,Yes,NA,Female,English,NA,17
1061,default,block1,jayden,ai,0.98,10978,inform,22,inform,C,NA,default,23,Yes,NA,Female,English,NA,18
1061,default,block1,emma,ai,0.99,6932,hear,23,hear,C,NA,default,23,Yes,NA,Female,English,NA,19
1061,default,block1,mary,ai,0.99,7025,acknowledge,24,acknowledge,C,NA,default,23,Yes,NA,Female,English,NA,20
1061,default,block1,mia,ai,0.97,8286,demonstrate,25,demonstrate,C,NA,default,23,Yes,NA,Female,English,NA,21
1061,default,block1,isabella,ai,0.97,8318,think,26,think,C,NA,default,23,Yes,NA,Female,English,NA,22
1061,default,block1,zoe,ai,0.99,4798,prove,27,prove,C,NA,default,23,Yes,NA,Female,English,NA,23
1061,default,block1,jackson,ai,0.99,5083,admit,28,admit,C,NA,default,23,Yes,NA,Female,English,NA,24
1061,default,block1,josh,ai,0.98,7551,announce,29,announce,C,NA,default,23,Yes,NA,Female,English,NA,25
1061,default,block1,julian,ai,0.98,8194,be_annoyed,30,be_annoyed,C,NA,default,23,Yes,NA,Female,English,NA,26
1061,default,block2,frank,projective,0.98,8062,discover,32,discover,C,NA,default,23,Yes,NA,Female,English,NA,27
1061,default,block2,kids,projective,0.05,11256,MC,33,MC,MC,NA,default,23,Yes,NA,Female,English,NA,28
1061,default,block2,jon,projective,0.01,5688,suggest,34,suggest,C,NA,default,23,Yes,NA,Female,English,NA,29
1061,default,block2,emma,projective,0.96,6909,hear,35,hear,C,NA,default,23,Yes,NA,Female,English,NA,30
1061,default,block2,jayden,projective,0.98,10691,inform,36,inform,C,NA,default,23,Yes,NA,Female,English,NA,31
1061,default,block2,zoe,projective,0.02,44644,prove,37,prove,C,NA,default,23,Yes,NA,Female,English,NA,32
1061,default,block2,grace,projective,0.01,7690,say,38,say,C,NA,default,23,Yes,NA,Female,English,NA,33
1061,default,block2,owen,projective,0.96,7010,know,39,know,C,NA,default,23,Yes,NA,Female,English,NA,34
1061,default,block2,ballet,projective,0.02,8937,MC,40,MC,MC,NA,default,23,Yes,NA,Female,English,NA,35
1061,default,block2,danny,projective,0.01,8616,be_right,41,be_right,C,NA,default,23,Yes,NA,Female,English,NA,36
1061,default,block2,isabella,projective,0.02,17167,think,42,think,C,NA,default,23,Yes,NA,Female,English,NA,37
1061,default,block2,hat,projective,0.02,27081,MC,43,MC,MC,NA,default,23,Yes,NA,Female,English,NA,38
1061,default,block2,mia,projective,0.97,6754,demonstrate,44,demonstrate,C,NA,default,23,Yes,NA,Female,English,NA,39
1061,default,block2,jackson,projective,0.02,6616,admit,45,admit,C,NA,default,23,Yes,NA,Female,English,NA,40
1061,default,block2,garage,projective,0.02,5905,MC,46,MC,MC,NA,default,23,Yes,NA,Female,English,NA,41
1061,default,block2,charley,projective,0.02,7991,establish,47,establish,C,NA,default,23,Yes,NA,Female,English,NA,42
1061,default,block2,julian,projective,0.98,4808,be_annoyed,48,be_annoyed,C,NA,default,23,Yes,NA,Female,English,NA,43
1061,default,block2,mary,projective,0.99,6780,acknowledge,49,acknowledge,C,NA,default,23,Yes,NA,Female,English,NA,44
1061,default,block2,tony,projective,0.01,6565,reveal,50,reveal,C,NA,default,23,Yes,NA,Female,English,NA,45
1061,default,block2,olivia,projective,0.01,6145,pretend,51,pretend,C,NA,default,23,Yes,NA,Female,English,NA,46
1061,default,block2,emily,projective,0.02,7786,confess,52,confess,C,NA,default,23,Yes,NA,Female,English,NA,47
1061,default,block2,sophia,projective,0,4406,confirm,53,confirm,C,NA,default,23,Yes,NA,Female,English,NA,48
1061,default,block2,josh,projective,0.99,8236,announce,54,announce,C,NA,default,23,Yes,NA,Female,English,NA,49
1061,default,block2,muffins,projective,0.02,5666,MC,55,MC,MC,NA,default,23,Yes,NA,Female,English,NA,50
1061,default,block2,josie,projective,0.97,6515,see,56,see,C,NA,default,23,Yes,NA,Female,English,NA,51
1061,default,block2,pizza,projective,0.02,6936,MC,57,MC,MC,NA,default,23,Yes,NA,Female,English,NA,52
1056,default,block1,jayden,ai,1,23376,be_annoyed,5,be_annoyed,C,NA,default,20,Yes,N/A,Male,English,NA,1
1056,default,block1,tony,ai,1,11125,be_right,6,be_right,C,NA,default,20,Yes,N/A,Male,English,NA,2
1056,default,block1,hat,ai,0,19573,MC,7,MC,MC,NA,default,20,Yes,N/A,Male,English,NA,3
1056,default,block1,jackson,ai,0.99,11065,suggest,8,suggest,C,NA,default,20,Yes,N/A,Male,English,NA,4
1056,default,block1,pizza,ai,0.21,8947,MC,9,MC,MC,NA,default,20,Yes,N/A,Male,English,NA,5
1056,default,block1,kids,ai,1,21289,MC,10,MC,MC,NA,default,20,Yes,N/A,Male,English,NA,6
1056,default,block1,danny,ai,1,7926,announce,11,announce,C,NA,default,20,Yes,N/A,Male,English,NA,7
1056,default,block1,julian,ai,0.98,6749,discover,12,discover,C,NA,default,20,Yes,N/A,Male,English,NA,8
1056,default,block1,mary,ai,1,19228,acknowledge,13,acknowledge,C,NA,default,20,Yes,N/A,Male,English,NA,9
1056,default,block1,emma,ai,0.95,5171,say,14,say,C,NA,default,20,Yes,N/A,Male,English,NA,10
1056,default,block1,charley,ai,0.98,9397,confirm,15,confirm,C,NA,default,20,Yes,N/A,Male,English,NA,11
1056,default,block1,jon,ai,0.97,8199,hear,16,hear,C,NA,default,20,Yes,N/A,Male,English,NA,12
1056,default,block1,mia,ai,0.95,8665,demonstrate,17,demonstrate,C,NA,default,20,Yes,N/A,Male,English,NA,13
1056,default,block1,ballet,ai,0.01,5253,MC,18,MC,MC,NA,default,20,Yes,N/A,Male,English,NA,14
1056,default,block1,grace,ai,0.97,6638,know,19,know,C,NA,default,20,Yes,N/A,Male,English,NA,15
1056,default,block1,josh,ai,0.98,17628,inform,20,inform,C,NA,default,20,Yes,N/A,Male,English,NA,16
1056,default,block1,isabella,ai,0.96,5674,see,21,see,C,NA,default,20,Yes,N/A,Male,English,NA,17
1056,default,block1,olivia,ai,0.64,17973,pretend,22,pretend,C,NA,default,20,Yes,N/A,Male,English,NA,18
1056,default,block1,muffins,ai,0.05,13607,MC,23,MC,MC,NA,default,20,Yes,N/A,Male,English,NA,19
1056,default,block1,garage,ai,0.04,7672,MC,24,MC,MC,NA,default,20,Yes,N/A,Male,English,NA,20
1056,default,block1,emily,ai,0.97,4573,confess,25,confess,C,NA,default,20,Yes,N/A,Male,English,NA,21
1056,default,block1,josie,ai,0.98,4469,establish,26,establish,C,NA,default,20,Yes,N/A,Male,English,NA,22
1056,default,block1,zoe,ai,0.98,4449,prove,27,prove,C,NA,default,20,Yes,N/A,Male,English,NA,23
1056,default,block1,sophia,ai,0.98,4702,reveal,28,reveal,C,NA,default,20,Yes,N/A,Male,English,NA,24
1056,default,block1,frank,ai,0.97,8215,think,29,think,C,NA,default,20,Yes,N/A,Male,English,NA,25
1056,default,block1,owen,ai,0.98,12563,admit,30,admit,C,NA,default,20,Yes,N/A,Male,English,NA,26
1056,default,block2,emma,projective,0.14,6970,say,32,say,C,NA,default,20,Yes,N/A,Male,English,NA,27
1056,default,block2,tony,projective,0.02,10189,be_right,33,be_right,C,NA,default,20,Yes,N/A,Male,English,NA,28
1056,default,block2,charley,projective,0.13,6299,confirm,34,confirm,C,NA,default,20,Yes,N/A,Male,English,NA,29
1056,default,block2,kids,projective,0.15,8286,MC,35,MC,MC,NA,default,20,Yes,N/A,Male,English,NA,30
1056,default,block2,owen,projective,0.97,11680,admit,36,admit,C,NA,default,20,Yes,N/A,Male,English,NA,31
1056,default,block2,sophia,projective,0.79,9247,reveal,37,reveal,C,NA,default,20,Yes,N/A,Male,English,NA,32
1056,default,block2,zoe,projective,0.21,9945,prove,38,prove,C,NA,default,20,Yes,N/A,Male,English,NA,33
1056,default,block2,muffins,projective,0.09,11791,MC,39,MC,MC,NA,default,20,Yes,N/A,Male,English,NA,34
1056,default,block2,grace,projective,0.97,6423,know,40,know,C,NA,default,20,Yes,N/A,Male,English,NA,35
1056,default,block2,isabella,projective,0.95,5280,see,41,see,C,NA,default,20,Yes,N/A,Male,English,NA,36
1056,default,block2,ballet,projective,0,7831,MC,42,MC,MC,NA,default,20,Yes,N/A,Male,English,NA,37
1056,default,block2,josie,projective,0.58,15890,establish,43,establish,C,NA,default,20,Yes,N/A,Male,English,NA,38
1056,default,block2,jayden,projective,0.96,10171,be_annoyed,44,be_annoyed,C,NA,default,20,Yes,N/A,Male,English,NA,39
1056,default,block2,pizza,projective,0.02,11562,MC,45,MC,MC,NA,default,20,Yes,N/A,Male,English,NA,40
1056,default,block2,garage,projective,0.04,5395,MC,46,MC,MC,NA,default,20,Yes,N/A,Male,English,NA,41
1056,default,block2,emily,projective,0.48,13902,confess,47,confess,C,NA,default,20,Yes,N/A,Male,English,NA,42
1056,default,block2,hat,projective,0.06,25388,MC,48,MC,MC,NA,default,20,Yes,N/A,Male,English,NA,43
1056,default,block2,mary,projective,0.89,22342,acknowledge,49,acknowledge,C,NA,default,20,Yes,N/A,Male,English,NA,44
1056,default,block2,frank,projective,0.1,13065,think,50,think,C,NA,default,20,Yes,N/A,Male,English,NA,45
1056,default,block2,jackson,projective,0.1,6658,suggest,51,suggest,C,NA,default,20,Yes,N/A,Male,English,NA,46
1056,default,block2,julian,projective,0.7,8412,discover,52,discover,C,NA,default,20,Yes,N/A,Male,English,NA,47
1056,default,block2,josh,projective,0.96,30593,inform,53,inform,C,NA,default,20,Yes,N/A,Male,English,NA,48
1056,default,block2,olivia,projective,0.08,8018,pretend,54,pretend,C,NA,default,20,Yes,N/A,Male,English,NA,49
1056,default,block2,jon,projective,0.63,8304,hear,55,hear,C,NA,default,20,Yes,N/A,Male,English,NA,50
1056,default,block2,danny,projective,0.06,7260,announce,56,announce,C,NA,default,20,Yes,N/A,Male,English,NA,51
1056,default,block2,mia,projective,0.22,7567,demonstrate,57,demonstrate,C,NA,default,20,Yes,N/A,Male,English,NA,52
