workerid,proliferate.condition,block,content,question_type,response,rt,short_trigger,slide_number_in_experiment,trigger,trigger_class,catch_trials,subject_information.age,subject_information.american,subject_information.comments,subject_information.gender,subject_information.language,system.Browser,system.OS,system.screenH,system.screenW,time_in_minutes,error
1055,default,block1,danny,ai,0.02,8991,see,5,see,C,[],33,Yes,,Female,english,Chrome,Windows,1080,1920,11.20455,
1055,default,block1,ballet,ai,0.05,7868,MC,6,MC,MC,[],33,Yes,,Female,english,Chrome,Windows,1080,1920,11.20455,
1055,default,block1,mary,ai,0.06,7537,announce,7,announce,C,[],33,Yes,,Female,english,Chrome,Windows,1080,1920,11.20455,
1055,default,block1,emma,ai,0.06,13920,think,8,think,C,[],33,Yes,,Female,english,Chrome,Windows,1080,1920,11.20455,
1055,default,block1,kids,ai,0.94,11353,MC,9,MC,MC,[],33,Yes,,Female,english,Chrome,Windows,1080,1920,11.20455,
1055,default,block1,owen,ai,0.05,10190,be_right,10,be_right,C,[],33,Yes,,Female,english,Chrome,Windows,1080,1920,11.20455,
1055,default,block1,jon,ai,0.07,8036,reveal,11,reveal,C,[],33,Yes,,Female,english,Chrome,Windows,1080,1920,11.20455,
1055,default,block1,jayden,ai,0.1,11231,establish,12,establish,C,[],33,Yes,,Female,english,Chrome,Windows,1080,1920,11.20455,
1055,default,block1,josh,ai,0.06,21468,inform,13,inform,C,[],33,Yes,,Female,english,Chrome,Windows,1080,1920,11.20455,
1055,default,block1,garage,ai,0.22,10638,MC,14,MC,MC,[],33,Yes,,Female,english,Chrome,Windows,1080,1920,11.20455,
1055,default,block1,grace,ai,0.21,7112,confirm,15,confirm,C,[],33,Yes,,Female,english,Chrome,Windows,1080,1920,11.20455,
1055,default,block1,mia,ai,0.36,7963,hear,16,hear,C,[],33,Yes,,Female,english,Chrome,Windows,1080,1920,11.20455,
1055,default,block1,josie,ai,0.2,10126,suggest,17,suggest,C,[],33,Yes,,Female,english,Chrome,Windows,1080,1920,11.20455,
1055,default,block1,jackson,ai,0.15,11277,confess,18,confess,C,[],33,Yes,,Female,english,Chrome,Windows,1080,1920,11.20455,
1055,default,block1,pizza,ai,0.18,9894,MC,19,MC,MC,[],33,Yes,,Female,english,Chrome,Windows,1080,1920,11.20455,
1055,default,block1,emily,ai,0.07,7651,prove,20,prove,C,[],33,Yes,,Female,english,Chrome,Windows,1080,1920,11.20455,
1055,default,block1,isabella,ai,0.11,7881,admit,21,admit,C,[],33,Yes,,Female,english,Chrome,Windows,1080,1920,11.20455,
1055,default,block1,olivia,ai,0.07,8631,discover,22,discover,C,[],33,Yes,,Female,english,Chrome,Windows,1080,1920,11.20455,
1055,default,block1,zoe,ai,0.26,22504,acknowledge,23,acknowledge,C,[],33,Yes,,Female,english,Chrome,Windows,1080,1920,11.20455,
1055,default,block1,muffins,ai,0.89,6578,MC,24,MC,MC,[],33,Yes,,Female,english,Chrome,Windows,1080,1920,11.20455,
1055,default,block1,hat,ai,0.6,5605,MC,25,MC,MC,[],33,Yes,,Female,english,Chrome,Windows,1080,1920,11.20455,
1055,default,block1,julian,ai,0.16,19531,know,26,know,C,[],33,Yes,,Female,english,Chrome,Windows,1080,1920,11.20455,
1055,default,block1,frank,ai,0.58,7028,pretend,27,pretend,C,[],33,Yes,,Female,english,Chrome,Windows,1080,1920,11.20455,
1055,default,block1,sophia,ai,0.21,5185,be_annoyed,28,be_annoyed,C,[],33,Yes,,Female,english,Chrome,Windows,1080,1920,11.20455,
1055,default,block1,charley,ai,0.09,34148,demonstrate,29,demonstrate,C,[],33,Yes,,Female,english,Chrome,Windows,1080,1920,11.20455,
1055,default,block1,tony,ai,0.15,8558,say,30,say,C,[],33,Yes,,Female,english,Chrome,Windows,1080,1920,11.20455,
1055,default,block2,muffins,projective,0.17,11649,MC,32,MC,MC,[],33,Yes,,Female,english,Chrome,Windows,1080,1920,11.20455,
1055,default,block2,emma,projective,0.35,28608,think,33,think,C,[],33,Yes,,Female,english,Chrome,Windows,1080,1920,11.20455,
1055,default,block2,emily,projective,0.9,7948,prove,34,prove,C,[],33,Yes,,Female,english,Chrome,Windows,1080,1920,11.20455,
1055,default,block2,jon,projective,0.81,6245,reveal,35,reveal,C,[],33,Yes,,Female,english,Chrome,Windows,1080,1920,11.20455,
1055,default,block2,pizza,projective,0.82,8877,MC,36,MC,MC,[],33,Yes,,Female,english,Chrome,Windows,1080,1920,11.20455,
1055,default,block2,owen,projective,0.27,12261,be_right,37,be_right,C,[],33,Yes,,Female,english,Chrome,Windows,1080,1920,11.20455,
1055,default,block2,sophia,projective,0.98,5765,be_annoyed,38,be_annoyed,C,[],33,Yes,,Female,english,Chrome,Windows,1080,1920,11.20455,
1055,default,block2,isabella,projective,0.95,8397,admit,39,admit,C,[],33,Yes,,Female,english,Chrome,Windows,1080,1920,11.20455,
1055,default,block2,jackson,projective,0.93,8548,confess,40,confess,C,[],33,Yes,,Female,english,Chrome,Windows,1080,1920,11.20455,
1055,default,block2,mary,projective,0.93,6045,announce,41,announce,C,[],33,Yes,,Female,english,Chrome,Windows,1080,1920,11.20455,
1055,default,block2,charley,projective,0.94,12089,demonstrate,42,demonstrate,C,[],33,Yes,,Female,english,Chrome,Windows,1080,1920,11.20455,
1055,default,block2,garage,projective,0.14,7316,MC,43,MC,MC,[],33,Yes,,Female,english,Chrome,Windows,1080,1920,11.20455,
1055,default,block2,ballet,projective,0.22,5544,MC,44,MC,MC,[],33,Yes,,Female,english,Chrome,Windows,1080,1920,11.20455,
1055,default,block2,hat,projective,0.09,4463,MC,45,MC,MC,[],33,Yes,,Female,english,Chrome,Windows,1080,1920,11.20455,
1055,default,block2,zoe,projective,0.94,4943,acknowledge,46,acknowledge,C,[],33,Yes,,Female,english,Chrome,Windows,1080,1920,11.20455,
1055,default,block2,julian,projective,0.87,4843,know,47,know,C,[],33,Yes,,Female,english,Chrome,Windows,1080,1920,11.20455,
1055,default,block2,mia,projective,0.88,4113,hear,48,hear,C,[],33,Yes,,Female,english,Chrome,Windows,1080,1920,11.20455,
1055,default,block2,josie,projective,0.13,6023,suggest,49,suggest,C,[],33,Yes,,Female,english,Chrome,Windows,1080,1920,11.20455,
1055,default,block2,josh,projective,0.93,6723,inform,50,inform,C,[],33,Yes,,Female,english,Chrome,Windows,1080,1920,11.20455,
1055,default,block2,olivia,projective,0.87,4513,discover,51,discover,C,[],33,Yes,,Female,english,Chrome,Windows,1080,1920,11.20455,
1055,default,block2,kids,projective,0.01,6442,MC,52,MC,MC,[],33,Yes,,Female,english,Chrome,Windows,1080,1920,11.20455,
1055,default,block2,danny,projective,0.89,6294,see,53,see,C,[],33,Yes,,Female,english,Chrome,Windows,1080,1920,11.20455,
1055,default,block2,frank,projective,0.1,6353,pretend,54,pretend,C,[],33,Yes,,Female,english,Chrome,Windows,1080,1920,11.20455,
1055,default,block2,grace,projective,0.5,9264,confirm,55,confirm,C,[],33,Yes,,Female,english,Chrome,Windows,1080,1920,11.20455,
1055,default,block2,jayden,projective,0.26,8354,establish,56,establish,C,[],33,Yes,,Female,english,Chrome,Windows,1080,1920,11.20455,
1055,default,block2,tony,projective,0.03,6754,say,57,say,C,[],33,Yes,,Female,english,Chrome,Windows,1080,1920,11.20455,
1051,default,block1,grace,projective,0.01,8318,be_right,5,be_right,C,[],48,Yes,"The second part was really interesting. Strange how the sentences can sometimes make sense and other times not, when they are seemingly the same.",Female,English,Chrome,Windows,900,1600,8.362266666666667,
1051,default,block1,muffins,projective,0.03,7383,MC,6,MC,MC,[],48,Yes,"The second part was really interesting. Strange how the sentences can sometimes make sense and other times not, when they are seemingly the same.",Female,English,Chrome,Windows,900,1600,8.362266666666667,
1051,default,block1,pizza,projective,0.48,11728,MC,7,MC,MC,[],48,Yes,"The second part was really interesting. Strange how the sentences can sometimes make sense and other times not, when they are seemingly the same.",Female,English,Chrome,Windows,900,1600,8.362266666666667,
1051,default,block1,josie,projective,0.04,7440,say,8,say,C,[],48,Yes,"The second part was really interesting. Strange how the sentences can sometimes make sense and other times not, when they are seemingly the same.",Female,English,Chrome,Windows,900,1600,8.362266666666667,
1051,default,block1,tony,projective,0.41,9160,admit,9,admit,C,[],48,Yes,"The second part was really interesting. Strange how the sentences can sometimes make sense and other times not, when they are seemingly the same.",Female,English,Chrome,Windows,900,1600,8.362266666666667,
1051,default,block1,jayden,projective,0.72,6664,know,10,know,C,[],48,Yes,"The second part was really interesting. Strange how the sentences can sometimes make sense and other times not, when they are seemingly the same.",Female,English,Chrome,Windows,900,1600,8.362266666666667,
1051,default,block1,hat,projective,0,7888,MC,11,MC,MC,[],48,Yes,"The second part was really interesting. Strange how the sentences can sometimes make sense and other times not, when they are seemingly the same.",Female,English,Chrome,Windows,900,1600,8.362266666666667,
1051,default,block1,jon,projective,0.82,8144,see,12,see,C,[],48,Yes,"The second part was really interesting. Strange how the sentences can sometimes make sense and other times not, when they are seemingly the same.",Female,English,Chrome,Windows,900,1600,8.362266666666667,
1051,default,block1,josh,projective,0.49,8288,prove,13,prove,C,[],48,Yes,"The second part was really interesting. Strange how the sentences can sometimes make sense and other times not, when they are seemingly the same.",Female,English,Chrome,Windows,900,1600,8.362266666666667,
1051,default,block1,zoe,projective,0.09,8624,establish,14,establish,C,[],48,Yes,"The second part was really interesting. Strange how the sentences can sometimes make sense and other times not, when they are seemingly the same.",Female,English,Chrome,Windows,900,1600,8.362266666666667,
1051,default,block1,sophia,projective,0.41,5768,discover,15,discover,C,[],48,Yes,"The second part was really interesting. Strange how the sentences can sometimes make sense and other times not, when they are seemingly the same.",Female,English,Chrome,Windows,900,1600,8.362266666666667,
1051,default,block1,julian,projective,0.05,8632,pretend,16,pretend,C,[],48,Yes,"The second part was really interesting. Strange how the sentences can sometimes make sense and other times not, when they are seemingly the same.",Female,English,Chrome,Windows,900,1600,8.362266666666667,
1051,default,block1,emily,projective,0.05,6376,confirm,17,confirm,C,[],48,Yes,"The second part was really interesting. Strange how the sentences can sometimes make sense and other times not, when they are seemingly the same.",Female,English,Chrome,Windows,900,1600,8.362266666666667,
1051,default,block1,charley,projective,0.07,8208,suggest,18,suggest,C,[],48,Yes,"The second part was really interesting. Strange how the sentences can sometimes make sense and other times not, when they are seemingly the same.",Female,English,Chrome,Windows,900,1600,8.362266666666667,
1051,default,block1,olivia,projective,0.64,7561,inform,19,inform,C,[],48,Yes,"The second part was really interesting. Strange how the sentences can sometimes make sense and other times not, when they are seemingly the same.",Female,English,Chrome,Windows,900,1600,8.362266666666667,
1051,default,block1,jackson,projective,0.97,7407,hear,20,hear,C,[],48,Yes,"The second part was really interesting. Strange how the sentences can sometimes make sense and other times not, when they are seemingly the same.",Female,English,Chrome,Windows,900,1600,8.362266666666667,
1051,default,block1,ballet,projective,0.07,6680,MC,21,MC,MC,[],48,Yes,"The second part was really interesting. Strange how the sentences can sometimes make sense and other times not, when they are seemingly the same.",Female,English,Chrome,Windows,900,1600,8.362266666666667,
1051,default,block1,kids,projective,0.01,8360,MC,22,MC,MC,[],48,Yes,"The second part was really interesting. Strange how the sentences can sometimes make sense and other times not, when they are seemingly the same.",Female,English,Chrome,Windows,900,1600,8.362266666666667,
1051,default,block1,danny,projective,0.99,6705,be_annoyed,23,be_annoyed,C,[],48,Yes,"The second part was really interesting. Strange how the sentences can sometimes make sense and other times not, when they are seemingly the same.",Female,English,Chrome,Windows,900,1600,8.362266666666667,
1051,default,block1,owen,projective,0.57,6071,acknowledge,24,acknowledge,C,[],48,Yes,"The second part was really interesting. Strange how the sentences can sometimes make sense and other times not, when they are seemingly the same.",Female,English,Chrome,Windows,900,1600,8.362266666666667,
1051,default,block1,garage,projective,0.04,8160,MC,25,MC,MC,[],48,Yes,"The second part was really interesting. Strange how the sentences can sometimes make sense and other times not, when they are seemingly the same.",Female,English,Chrome,Windows,900,1600,8.362266666666667,
1051,default,block1,mary,projective,0.47,8392,confess,26,confess,C,[],48,Yes,"The second part was really interesting. Strange how the sentences can sometimes make sense and other times not, when they are seemingly the same.",Female,English,Chrome,Windows,900,1600,8.362266666666667,
1051,default,block1,frank,projective,0.02,7440,think,27,think,C,[],48,Yes,"The second part was really interesting. Strange how the sentences can sometimes make sense and other times not, when they are seemingly the same.",Female,English,Chrome,Windows,900,1600,8.362266666666667,
1051,default,block1,isabella,projective,0.54,8344,announce,28,announce,C,[],48,Yes,"The second part was really interesting. Strange how the sentences can sometimes make sense and other times not, when they are seemingly the same.",Female,English,Chrome,Windows,900,1600,8.362266666666667,
1051,default,block1,mia,projective,0.95,6416,reveal,29,reveal,C,[],48,Yes,"The second part was really interesting. Strange how the sentences can sometimes make sense and other times not, when they are seemingly the same.",Female,English,Chrome,Windows,900,1600,8.362266666666667,
1051,default,block1,emma,projective,0.45,10488,demonstrate,30,demonstrate,C,[],48,Yes,"The second part was really interesting. Strange how the sentences can sometimes make sense and other times not, when they are seemingly the same.",Female,English,Chrome,Windows,900,1600,8.362266666666667,
1051,default,block2,hat,ai,0.85,11318,MC,32,MC,MC,[],48,Yes,"The second part was really interesting. Strange how the sentences can sometimes make sense and other times not, when they are seemingly the same.",Female,English,Chrome,Windows,900,1600,8.362266666666667,
1051,default,block2,mary,ai,0.04,7783,confess,33,confess,C,[],48,Yes,"The second part was really interesting. Strange how the sentences can sometimes make sense and other times not, when they are seemingly the same.",Female,English,Chrome,Windows,900,1600,8.362266666666667,
1051,default,block2,kids,ai,0.08,8135,MC,34,MC,MC,[],48,Yes,"The second part was really interesting. Strange how the sentences can sometimes make sense and other times not, when they are seemingly the same.",Female,English,Chrome,Windows,900,1600,8.362266666666667,
1051,default,block2,garage,ai,0.67,7320,MC,35,MC,MC,[],48,Yes,"The second part was really interesting. Strange how the sentences can sometimes make sense and other times not, when they are seemingly the same.",Female,English,Chrome,Windows,900,1600,8.362266666666667,
1051,default,block2,pizza,ai,0.03,7592,MC,36,MC,MC,[],48,Yes,"The second part was really interesting. Strange how the sentences can sometimes make sense and other times not, when they are seemingly the same.",Female,English,Chrome,Windows,900,1600,8.362266666666667,
1051,default,block2,emma,ai,0.02,6592,demonstrate,37,demonstrate,C,[],48,Yes,"The second part was really interesting. Strange how the sentences can sometimes make sense and other times not, when they are seemingly the same.",Female,English,Chrome,Windows,900,1600,8.362266666666667,
1051,default,block2,ballet,ai,0.04,6784,MC,38,MC,MC,[],48,Yes,"The second part was really interesting. Strange how the sentences can sometimes make sense and other times not, when they are seemingly the same.",Female,English,Chrome,Windows,900,1600,8.362266666666667,
1051,default,block2,charley,ai,0,5112,suggest,39,suggest,C,[],48,Yes,"The second part was really interesting. Strange how the sentences can sometimes make sense and other times not, when they are seemingly the same.",Female,English,Chrome,Windows,900,1600,8.362266666666667,
1051,default,block2,zoe,ai,0.05,5608,establish,40,establish,C,[],48,Yes,"The second part was really interesting. Strange how the sentences can sometimes make sense and other times not, when they are seemingly the same.",Female,English,Chrome,Windows,900,1600,8.362266666666667,
1051,default,block2,emily,ai,0.01,6632,confirm,41,confirm,C,[],48,Yes,"The second part was really interesting. Strange how the sentences can sometimes make sense and other times not, when they are seemingly the same.",Female,English,Chrome,Windows,900,1600,8.362266666666667,
1051,default,block2,jon,ai,0.03,9592,see,42,see,C,[],48,Yes,"The second part was really interesting. Strange how the sentences can sometimes make sense and other times not, when they are seemingly the same.",Female,English,Chrome,Windows,900,1600,8.362266666666667,
1051,default,block2,mia,ai,0.06,5400,reveal,43,reveal,C,[],48,Yes,"The second part was really interesting. Strange how the sentences can sometimes make sense and other times not, when they are seemingly the same.",Female,English,Chrome,Windows,900,1600,8.362266666666667,
1051,default,block2,muffins,ai,0.5,6200,MC,44,MC,MC,[],48,Yes,"The second part was really interesting. Strange how the sentences can sometimes make sense and other times not, when they are seemingly the same.",Female,English,Chrome,Windows,900,1600,8.362266666666667,
1051,default,block2,josie,ai,0.01,6016,say,45,say,C,[],48,Yes,"The second part was really interesting. Strange how the sentences can sometimes make sense and other times not, when they are seemingly the same.",Female,English,Chrome,Windows,900,1600,8.362266666666667,
1051,default,block2,josh,ai,0.03,9736,prove,46,prove,C,[],48,Yes,"The second part was really interesting. Strange how the sentences can sometimes make sense and other times not, when they are seemingly the same.",Female,English,Chrome,Windows,900,1600,8.362266666666667,
1051,default,block2,sophia,ai,0.03,5136,discover,47,discover,C,[],48,Yes,"The second part was really interesting. Strange how the sentences can sometimes make sense and other times not, when they are seemingly the same.",Female,English,Chrome,Windows,900,1600,8.362266666666667,
1051,default,block2,grace,ai,0.02,7128,be_right,48,be_right,C,[],48,Yes,"The second part was really interesting. Strange how the sentences can sometimes make sense and other times not, when they are seemingly the same.",Female,English,Chrome,Windows,900,1600,8.362266666666667,
1051,default,block2,olivia,ai,0.04,9152,inform,49,inform,C,[],48,Yes,"The second part was really interesting. Strange how the sentences can sometimes make sense and other times not, when they are seemingly the same.",Female,English,Chrome,Windows,900,1600,8.362266666666667,
1051,default,block2,jayden,ai,0.01,7120,know,50,know,C,[],48,Yes,"The second part was really interesting. Strange how the sentences can sometimes make sense and other times not, when they are seemingly the same.",Female,English,Chrome,Windows,900,1600,8.362266666666667,
1051,default,block2,isabella,ai,0.03,6352,announce,51,announce,C,[],48,Yes,"The second part was really interesting. Strange how the sentences can sometimes make sense and other times not, when they are seemingly the same.",Female,English,Chrome,Windows,900,1600,8.362266666666667,
1051,default,block2,frank,ai,0.04,8176,think,52,think,C,[],48,Yes,"The second part was really interesting. Strange how the sentences can sometimes make sense and other times not, when they are seemingly the same.",Female,English,Chrome,Windows,900,1600,8.362266666666667,
1051,default,block2,jackson,ai,0.06,6688,hear,53,hear,C,[],48,Yes,"The second part was really interesting. Strange how the sentences can sometimes make sense and other times not, when they are seemingly the same.",Female,English,Chrome,Windows,900,1600,8.362266666666667,
1051,default,block2,danny,ai,0.03,4952,be_annoyed,54,be_annoyed,C,[],48,Yes,"The second part was really interesting. Strange how the sentences can sometimes make sense and other times not, when they are seemingly the same.",Female,English,Chrome,Windows,900,1600,8.362266666666667,
1051,default,block2,julian,ai,0.78,12249,pretend,55,pretend,C,[],48,Yes,"The second part was really interesting. Strange how the sentences can sometimes make sense and other times not, when they are seemingly the same.",Female,English,Chrome,Windows,900,1600,8.362266666666667,
1051,default,block2,owen,ai,0.02,8335,acknowledge,56,acknowledge,C,[],48,Yes,"The second part was really interesting. Strange how the sentences can sometimes make sense and other times not, when they are seemingly the same.",Female,English,Chrome,Windows,900,1600,8.362266666666667,
1051,default,block2,tony,ai,0.03,5128,admit,57,admit,C,[],48,Yes,"The second part was really interesting. Strange how the sentences can sometimes make sense and other times not, when they are seemingly the same.",Female,English,Chrome,Windows,900,1600,8.362266666666667,
1052,default,block1,isabella,projective,0.48,15262,confess,5,confess,C,[],37,Yes,,Female,English,Safari,Mac,900,1440,8.340866666666667,
1052,default,block1,danny,projective,0.37,7639,demonstrate,6,demonstrate,C,[],37,Yes,,Female,English,Safari,Mac,900,1440,8.340866666666667,
1052,default,block1,mary,projective,0.67,7535,inform,7,inform,C,[],37,Yes,,Female,English,Safari,Mac,900,1440,8.340866666666667,
1052,default,block1,emily,projective,0.86,9939,hear,8,hear,C,[],37,Yes,,Female,English,Safari,Mac,900,1440,8.340866666666667,
1052,default,block1,ballet,projective,0.11,12517,MC,9,MC,MC,[],37,Yes,,Female,English,Safari,Mac,900,1440,8.340866666666667,
1052,default,block1,hat,projective,0.37,5851,MC,10,MC,MC,[],37,Yes,,Female,English,Safari,Mac,900,1440,8.340866666666667,
1052,default,block1,muffins,projective,0.14,6663,MC,11,MC,MC,[],37,Yes,,Female,English,Safari,Mac,900,1440,8.340866666666667,
1052,default,block1,frank,projective,0.71,26621,be_annoyed,12,be_annoyed,C,[],37,Yes,,Female,English,Safari,Mac,900,1440,8.340866666666667,
1052,default,block1,jon,projective,0.85,5641,know,13,know,C,[],37,Yes,,Female,English,Safari,Mac,900,1440,8.340866666666667,
1052,default,block1,olivia,projective,0.66,7388,announce,14,announce,C,[],37,Yes,,Female,English,Safari,Mac,900,1440,8.340866666666667,
1052,default,block1,josh,projective,0.78,5322,reveal,15,reveal,C,[],37,Yes,,Female,English,Safari,Mac,900,1440,8.340866666666667,
1052,default,block1,julian,projective,0.51,10004,establish,16,establish,C,[],37,Yes,,Female,English,Safari,Mac,900,1440,8.340866666666667,
1052,default,block1,mia,projective,0.22,4462,suggest,17,suggest,C,[],37,Yes,,Female,English,Safari,Mac,900,1440,8.340866666666667,
1052,default,block1,grace,projective,0.21,18311,say,18,say,C,[],37,Yes,,Female,English,Safari,Mac,900,1440,8.340866666666667,
1052,default,block1,tony,projective,0.44,6844,admit,19,admit,C,[],37,Yes,,Female,English,Safari,Mac,900,1440,8.340866666666667,
1052,default,block1,owen,projective,0.75,6437,see,20,see,C,[],37,Yes,,Female,English,Safari,Mac,900,1440,8.340866666666667,
1052,default,block1,josie,projective,0.51,10867,confirm,21,confirm,C,[],37,Yes,,Female,English,Safari,Mac,900,1440,8.340866666666667,
1052,default,block1,garage,projective,0.14,6087,MC,22,MC,MC,[],37,Yes,,Female,English,Safari,Mac,900,1440,8.340866666666667,
1052,default,block1,sophia,projective,0.13,5950,pretend,23,pretend,C,[],37,Yes,,Female,English,Safari,Mac,900,1440,8.340866666666667,
1052,default,block1,pizza,projective,0.21,11697,MC,24,MC,MC,[],37,Yes,,Female,English,Safari,Mac,900,1440,8.340866666666667,
1052,default,block1,jackson,projective,0.64,4772,discover,25,discover,C,[],37,Yes,,Female,English,Safari,Mac,900,1440,8.340866666666667,
1052,default,block1,zoe,projective,0.34,7502,think,26,think,C,[],37,Yes,,Female,English,Safari,Mac,900,1440,8.340866666666667,
1052,default,block1,kids,projective,0.3,15670,MC,27,MC,MC,[],37,Yes,,Female,English,Safari,Mac,900,1440,8.340866666666667,
1052,default,block1,charley,projective,0.45,6380,prove,28,prove,C,[],37,Yes,,Female,English,Safari,Mac,900,1440,8.340866666666667,
1052,default,block1,emma,projective,0.65,5275,acknowledge,29,acknowledge,C,[],37,Yes,,Female,English,Safari,Mac,900,1440,8.340866666666667,
1052,default,block1,jayden,projective,0.56,5697,be_right,30,be_right,C,[],37,Yes,,Female,English,Safari,Mac,900,1440,8.340866666666667,
1052,default,block2,danny,ai,0.27,22011,demonstrate,32,demonstrate,C,[],37,Yes,,Female,English,Safari,Mac,900,1440,8.340866666666667,
1052,default,block2,isabella,ai,0.15,9168,confess,33,confess,C,[],37,Yes,,Female,English,Safari,Mac,900,1440,8.340866666666667,
1052,default,block2,emily,ai,0.13,5778,hear,34,hear,C,[],37,Yes,,Female,English,Safari,Mac,900,1440,8.340866666666667,
1052,default,block2,garage,ai,0.88,5722,MC,35,MC,MC,[],37,Yes,,Female,English,Safari,Mac,900,1440,8.340866666666667,
1052,default,block2,julian,ai,0.11,6258,establish,36,establish,C,[],37,Yes,,Female,English,Safari,Mac,900,1440,8.340866666666667,
1052,default,block2,pizza,ai,0.91,7322,MC,37,MC,MC,[],37,Yes,,Female,English,Safari,Mac,900,1440,8.340866666666667,
1052,default,block2,frank,ai,0.09,8014,be_annoyed,38,be_annoyed,C,[],37,Yes,,Female,English,Safari,Mac,900,1440,8.340866666666667,
1052,default,block2,muffins,ai,0.93,29153,MC,39,MC,MC,[],37,Yes,,Female,English,Safari,Mac,900,1440,8.340866666666667,
1052,default,block2,kids,ai,0.94,6525,MC,40,MC,MC,[],37,Yes,,Female,English,Safari,Mac,900,1440,8.340866666666667,
1052,default,block2,mia,ai,0.08,6900,suggest,41,suggest,C,[],37,Yes,,Female,English,Safari,Mac,900,1440,8.340866666666667,
1052,default,block2,jayden,ai,0.03,7378,be_right,42,be_right,C,[],37,Yes,,Female,English,Safari,Mac,900,1440,8.340866666666667,
1052,default,block2,jackson,ai,0.02,7354,discover,43,discover,C,[],37,Yes,,Female,English,Safari,Mac,900,1440,8.340866666666667,
1052,default,block2,jon,ai,0.05,22463,know,44,know,C,[],37,Yes,,Female,English,Safari,Mac,900,1440,8.340866666666667,
1052,default,block2,emma,ai,0.04,4332,acknowledge,45,acknowledge,C,[],37,Yes,,Female,English,Safari,Mac,900,1440,8.340866666666667,
1052,default,block2,josh,ai,0.06,4308,reveal,46,reveal,C,[],37,Yes,,Female,English,Safari,Mac,900,1440,8.340866666666667,
1052,default,block2,hat,ai,0.96,8149,MC,47,MC,MC,[],37,Yes,,Female,English,Safari,Mac,900,1440,8.340866666666667,
1052,default,block2,mary,ai,0.03,5193,inform,48,inform,C,[],37,Yes,,Female,English,Safari,Mac,900,1440,8.340866666666667,
1052,default,block2,zoe,ai,0.02,5664,think,49,think,C,[],37,Yes,,Female,English,Safari,Mac,900,1440,8.340866666666667,
1052,default,block2,josie,ai,0.03,4161,confirm,50,confirm,C,[],37,Yes,,Female,English,Safari,Mac,900,1440,8.340866666666667,
1052,default,block2,sophia,ai,0.05,4543,pretend,51,pretend,C,[],37,Yes,,Female,English,Safari,Mac,900,1440,8.340866666666667,
1052,default,block2,olivia,ai,0.05,3584,announce,52,announce,C,[],37,Yes,,Female,English,Safari,Mac,900,1440,8.340866666666667,
1052,default,block2,ballet,ai,0.98,4380,MC,53,MC,MC,[],37,Yes,,Female,English,Safari,Mac,900,1440,8.340866666666667,
1052,default,block2,owen,ai,0.03,6412,see,54,see,C,[],37,Yes,,Female,English,Safari,Mac,900,1440,8.340866666666667,
1052,default,block2,tony,ai,0.03,3502,admit,55,admit,C,[],37,Yes,,Female,English,Safari,Mac,900,1440,8.340866666666667,
1052,default,block2,charley,ai,0.03,5681,prove,56,prove,C,[],37,Yes,,Female,English,Safari,Mac,900,1440,8.340866666666667,
1052,default,block2,grace,ai,0.03,4607,say,57,say,C,[],37,Yes,,Female,English,Safari,Mac,900,1440,8.340866666666667,
1059,default,block1,owen,projective,0,13331,establish,5,establish,C,[],19,Yes,,Female,English,Chrome,Windows,864,1536,9.582233333333331,
1059,default,block1,josh,projective,0.99,12277,inform,6,inform,C,[],19,Yes,,Female,English,Chrome,Windows,864,1536,9.582233333333331,
1059,default,block1,muffins,projective,0.01,8237,MC,7,MC,MC,[],19,Yes,,Female,English,Chrome,Windows,864,1536,9.582233333333331,
1059,default,block1,jayden,projective,0.67,10357,be_right,8,be_right,C,[],19,Yes,,Female,English,Chrome,Windows,864,1536,9.582233333333331,
1059,default,block1,mary,projective,0.49,12404,think,9,think,C,[],19,Yes,,Female,English,Chrome,Windows,864,1536,9.582233333333331,
1059,default,block1,emily,projective,0.84,15863,reveal,10,reveal,C,[],19,Yes,,Female,English,Chrome,Windows,864,1536,9.582233333333331,
1059,default,block1,olivia,projective,0.15,6582,confirm,11,confirm,C,[],19,Yes,,Female,English,Chrome,Windows,864,1536,9.582233333333331,
1059,default,block1,jackson,projective,0.39,10794,announce,12,announce,C,[],19,Yes,,Female,English,Chrome,Windows,864,1536,9.582233333333331,
1059,default,block1,frank,projective,0.98,5938,discover,13,discover,C,[],19,Yes,,Female,English,Chrome,Windows,864,1536,9.582233333333331,
1059,default,block1,grace,projective,1,12689,be_annoyed,14,be_annoyed,C,[],19,Yes,,Female,English,Chrome,Windows,864,1536,9.582233333333331,
1059,default,block1,hat,projective,0.08,8100,MC,15,MC,MC,[],19,Yes,,Female,English,Chrome,Windows,864,1536,9.582233333333331,
1059,default,block1,tony,projective,0.08,15944,suggest,16,suggest,C,[],19,Yes,,Female,English,Chrome,Windows,864,1536,9.582233333333331,
1059,default,block1,josie,projective,0.98,12285,acknowledge,17,acknowledge,C,[],19,Yes,,Female,English,Chrome,Windows,864,1536,9.582233333333331,
1059,default,block1,garage,projective,0.05,11161,MC,18,MC,MC,[],19,Yes,,Female,English,Chrome,Windows,864,1536,9.582233333333331,
1059,default,block1,jon,projective,0.03,13920,pretend,19,pretend,C,[],19,Yes,,Female,English,Chrome,Windows,864,1536,9.582233333333331,
1059,default,block1,sophia,projective,0.85,20698,admit,20,admit,C,[],19,Yes,,Female,English,Chrome,Windows,864,1536,9.582233333333331,
1059,default,block1,pizza,projective,0.24,13304,MC,21,MC,MC,[],19,Yes,,Female,English,Chrome,Windows,864,1536,9.582233333333331,
1059,default,block1,ballet,projective,0.05,7354,MC,22,MC,MC,[],19,Yes,,Female,English,Chrome,Windows,864,1536,9.582233333333331,
1059,default,block1,charley,projective,0.98,7003,see,23,see,C,[],19,Yes,,Female,English,Chrome,Windows,864,1536,9.582233333333331,
1059,default,block1,emma,projective,0.12,13213,say,24,say,C,[],19,Yes,,Female,English,Chrome,Windows,864,1536,9.582233333333331,
1059,default,block1,mia,projective,0.99,5935,hear,25,hear,C,[],19,Yes,,Female,English,Chrome,Windows,864,1536,9.582233333333331,
1059,default,block1,danny,projective,0.99,8045,know,26,know,C,[],19,Yes,,Female,English,Chrome,Windows,864,1536,9.582233333333331,
1059,default,block1,julian,projective,0.86,12896,demonstrate,27,demonstrate,C,[],19,Yes,,Female,English,Chrome,Windows,864,1536,9.582233333333331,
1059,default,block1,zoe,projective,0.72,14036,confess,28,confess,C,[],19,Yes,,Female,English,Chrome,Windows,864,1536,9.582233333333331,
1059,default,block1,isabella,projective,0.22,15600,prove,29,prove,C,[],19,Yes,,Female,English,Chrome,Windows,864,1536,9.582233333333331,
1059,default,block1,kids,projective,0,9699,MC,30,MC,MC,[],19,Yes,,Female,English,Chrome,Windows,864,1536,9.582233333333331,
1059,default,block2,mary,ai,0.01,13951,think,32,think,C,[],19,Yes,,Female,English,Chrome,Windows,864,1536,9.582233333333331,
1059,default,block2,garage,ai,0.24,9718,MC,33,MC,MC,[],19,Yes,,Female,English,Chrome,Windows,864,1536,9.582233333333331,
1059,default,block2,josh,ai,0,15466,inform,34,inform,C,[],19,Yes,,Female,English,Chrome,Windows,864,1536,9.582233333333331,
1059,default,block2,olivia,ai,0.01,6368,confirm,35,confirm,C,[],19,Yes,,Female,English,Chrome,Windows,864,1536,9.582233333333331,
1059,default,block2,kids,ai,0,7284,MC,36,MC,MC,[],19,Yes,,Female,English,Chrome,Windows,864,1536,9.582233333333331,
1059,default,block2,emily,ai,0,5912,reveal,37,reveal,C,[],19,Yes,,Female,English,Chrome,Windows,864,1536,9.582233333333331,
1059,default,block2,frank,ai,0.01,8904,discover,38,discover,C,[],19,Yes,,Female,English,Chrome,Windows,864,1536,9.582233333333331,
1059,default,block2,mia,ai,0,7832,hear,39,hear,C,[],19,Yes,,Female,English,Chrome,Windows,864,1536,9.582233333333331,
1059,default,block2,muffins,ai,1,10447,MC,40,MC,MC,[],19,Yes,,Female,English,Chrome,Windows,864,1536,9.582233333333331,
1059,default,block2,isabella,ai,0.02,6237,prove,41,prove,C,[],19,Yes,,Female,English,Chrome,Windows,864,1536,9.582233333333331,
1059,default,block2,jayden,ai,0.01,5846,be_right,42,be_right,C,[],19,Yes,,Female,English,Chrome,Windows,864,1536,9.582233333333331,
1059,default,block2,zoe,ai,0.01,6742,confess,43,confess,C,[],19,Yes,,Female,English,Chrome,Windows,864,1536,9.582233333333331,
1059,default,block2,julian,ai,0.01,8024,demonstrate,44,demonstrate,C,[],19,Yes,,Female,English,Chrome,Windows,864,1536,9.582233333333331,
1059,default,block2,grace,ai,0,5154,be_annoyed,45,be_annoyed,C,[],19,Yes,,Female,English,Chrome,Windows,864,1536,9.582233333333331,
1059,default,block2,emma,ai,0.01,10393,say,46,say,C,[],19,Yes,,Female,English,Chrome,Windows,864,1536,9.582233333333331,
1059,default,block2,jon,ai,0,6213,pretend,47,pretend,C,[],19,Yes,,Female,English,Chrome,Windows,864,1536,9.582233333333331,
1059,default,block2,owen,ai,0,7226,establish,48,establish,C,[],19,Yes,,Female,English,Chrome,Windows,864,1536,9.582233333333331,
1059,default,block2,josie,ai,0.01,6148,acknowledge,49,acknowledge,C,[],19,Yes,,Female,English,Chrome,Windows,864,1536,9.582233333333331,
1059,default,block2,ballet,ai,0.14,9211,MC,50,MC,MC,[],19,Yes,,Female,English,Chrome,Windows,864,1536,9.582233333333331,
1059,default,block2,tony,ai,0,4995,suggest,51,suggest,C,[],19,Yes,,Female,English,Chrome,Windows,864,1536,9.582233333333331,
1059,default,block2,sophia,ai,0,5900,admit,52,admit,C,[],19,Yes,,Female,English,Chrome,Windows,864,1536,9.582233333333331,
1059,default,block2,hat,ai,0.55,9681,MC,53,MC,MC,[],19,Yes,,Female,English,Chrome,Windows,864,1536,9.582233333333331,
1059,default,block2,pizza,ai,0.42,10057,MC,54,MC,MC,[],19,Yes,,Female,English,Chrome,Windows,864,1536,9.582233333333331,
1059,default,block2,jackson,ai,0.01,6111,announce,55,announce,C,[],19,Yes,,Female,English,Chrome,Windows,864,1536,9.582233333333331,
1059,default,block2,danny,ai,0.01,4103,know,56,know,C,[],19,Yes,,Female,English,Chrome,Windows,864,1536,9.582233333333331,
1059,default,block2,charley,ai,0.01,5076,see,57,see,C,[],19,Yes,,Female,English,Chrome,Windows,864,1536,9.582233333333331,
1058,default,block1,danny,ai,0,15490,acknowledge,5,acknowledge,C,[],18,Yes,,Female,English,Chrome,Windows,720,1280,8.695616666666666,
1058,default,block1,josie,ai,0,7782,discover,6,discover,C,[],18,Yes,,Female,English,Chrome,Windows,720,1280,8.695616666666666,
1058,default,block1,hat,ai,1,14071,MC,7,MC,MC,[],18,Yes,,Female,English,Chrome,Windows,720,1280,8.695616666666666,
1058,default,block1,muffins,ai,1,7656,MC,8,MC,MC,[],18,Yes,,Female,English,Chrome,Windows,720,1280,8.695616666666666,
1058,default,block1,kids,ai,0,11933,MC,9,MC,MC,[],18,Yes,,Female,English,Chrome,Windows,720,1280,8.695616666666666,
1058,default,block1,isabella,ai,0,7717,establish,10,establish,C,[],18,Yes,,Female,English,Chrome,Windows,720,1280,8.695616666666666,
1058,default,block1,jon,ai,0,8902,pretend,11,pretend,C,[],18,Yes,,Female,English,Chrome,Windows,720,1280,8.695616666666666,
1058,default,block1,sophia,ai,0,7071,say,12,say,C,[],18,Yes,,Female,English,Chrome,Windows,720,1280,8.695616666666666,
1058,default,block1,emma,ai,0,4810,announce,13,announce,C,[],18,Yes,,Female,English,Chrome,Windows,720,1280,8.695616666666666,
1058,default,block1,ballet,ai,0.98,5726,MC,14,MC,MC,[],18,Yes,,Female,English,Chrome,Windows,720,1280,8.695616666666666,
1058,default,block1,zoe,ai,0.01,6322,know,15,know,C,[],18,Yes,,Female,English,Chrome,Windows,720,1280,8.695616666666666,
1058,default,block1,pizza,ai,0.68,20110,MC,16,MC,MC,[],18,Yes,,Female,English,Chrome,Windows,720,1280,8.695616666666666,
1058,default,block1,emily,ai,0.01,13244,confirm,17,confirm,C,[],18,Yes,,Female,English,Chrome,Windows,720,1280,8.695616666666666,
1058,default,block1,jackson,ai,0.01,6696,see,18,see,C,[],18,Yes,,Female,English,Chrome,Windows,720,1280,8.695616666666666,
1058,default,block1,mary,ai,0,5936,inform,19,inform,C,[],18,Yes,,Female,English,Chrome,Windows,720,1280,8.695616666666666,
1058,default,block1,olivia,ai,0.02,4717,confess,20,confess,C,[],18,Yes,,Female,English,Chrome,Windows,720,1280,8.695616666666666,
1058,default,block1,julian,ai,0.02,7478,be_annoyed,21,be_annoyed,C,[],18,Yes,,Female,English,Chrome,Windows,720,1280,8.695616666666666,
1058,default,block1,tony,ai,0.01,6035,reveal,22,reveal,C,[],18,Yes,,Female,English,Chrome,Windows,720,1280,8.695616666666666,
1058,default,block1,owen,ai,0.02,13682,be_right,23,be_right,C,[],18,Yes,,Female,English,Chrome,Windows,720,1280,8.695616666666666,
1058,default,block1,jayden,ai,0.01,4600,demonstrate,24,demonstrate,C,[],18,Yes,,Female,English,Chrome,Windows,720,1280,8.695616666666666,
1058,default,block1,frank,ai,0.01,4908,prove,25,prove,C,[],18,Yes,,Female,English,Chrome,Windows,720,1280,8.695616666666666,
1058,default,block1,grace,ai,0.02,5584,admit,26,admit,C,[],18,Yes,,Female,English,Chrome,Windows,720,1280,8.695616666666666,
1058,default,block1,josh,ai,0.02,6175,hear,27,hear,C,[],18,Yes,,Female,English,Chrome,Windows,720,1280,8.695616666666666,
1058,default,block1,mia,ai,0.01,5288,suggest,28,suggest,C,[],18,Yes,,Female,English,Chrome,Windows,720,1280,8.695616666666666,
1058,default,block1,charley,ai,0.01,6563,think,29,think,C,[],18,Yes,,Female,English,Chrome,Windows,720,1280,8.695616666666666,
1058,default,block1,garage,ai,1,7745,MC,30,MC,MC,[],18,Yes,,Female,English,Chrome,Windows,720,1280,8.695616666666666,
1058,default,block2,hat,projective,0.02,9012,MC,32,MC,MC,[],18,Yes,,Female,English,Chrome,Windows,720,1280,8.695616666666666,
1058,default,block2,jackson,projective,0.98,7591,see,33,see,C,[],18,Yes,,Female,English,Chrome,Windows,720,1280,8.695616666666666,
1058,default,block2,grace,projective,0.99,15125,admit,34,admit,C,[],18,Yes,,Female,English,Chrome,Windows,720,1280,8.695616666666666,
1058,default,block2,owen,projective,0.01,11716,be_right,35,be_right,C,[],18,Yes,,Female,English,Chrome,Windows,720,1280,8.695616666666666,
1058,default,block2,mia,projective,0.02,9147,suggest,36,suggest,C,[],18,Yes,,Female,English,Chrome,Windows,720,1280,8.695616666666666,
1058,default,block2,kids,projective,0.01,9732,MC,37,MC,MC,[],18,Yes,,Female,English,Chrome,Windows,720,1280,8.695616666666666,
1058,default,block2,danny,projective,0.98,9315,acknowledge,38,acknowledge,C,[],18,Yes,,Female,English,Chrome,Windows,720,1280,8.695616666666666,
1058,default,block2,ballet,projective,0.01,12542,MC,39,MC,MC,[],18,Yes,,Female,English,Chrome,Windows,720,1280,8.695616666666666,
1058,default,block2,jon,projective,0.01,10873,pretend,40,pretend,C,[],18,Yes,,Female,English,Chrome,Windows,720,1280,8.695616666666666,
1058,default,block2,sophia,projective,0.01,5316,say,41,say,C,[],18,Yes,,Female,English,Chrome,Windows,720,1280,8.695616666666666,
1058,default,block2,tony,projective,0,6436,reveal,42,reveal,C,[],18,Yes,,Female,English,Chrome,Windows,720,1280,8.695616666666666,
1058,default,block2,josie,projective,0.97,6478,discover,43,discover,C,[],18,Yes,,Female,English,Chrome,Windows,720,1280,8.695616666666666,
1058,default,block2,zoe,projective,0.98,4971,know,44,know,C,[],18,Yes,,Female,English,Chrome,Windows,720,1280,8.695616666666666,
1058,default,block2,muffins,projective,0.02,6126,MC,45,MC,MC,[],18,Yes,,Female,English,Chrome,Windows,720,1280,8.695616666666666,
1058,default,block2,isabella,projective,0.01,9921,establish,46,establish,C,[],18,Yes,,Female,English,Chrome,Windows,720,1280,8.695616666666666,
1058,default,block2,josh,projective,0.98,8654,hear,47,hear,C,[],18,Yes,,Female,English,Chrome,Windows,720,1280,8.695616666666666,
1058,default,block2,frank,projective,0.01,8450,prove,48,prove,C,[],18,Yes,,Female,English,Chrome,Windows,720,1280,8.695616666666666,
1058,default,block2,pizza,projective,0.02,6077,MC,49,MC,MC,[],18,Yes,,Female,English,Chrome,Windows,720,1280,8.695616666666666,
1058,default,block2,jayden,projective,0.02,7782,demonstrate,50,demonstrate,C,[],18,Yes,,Female,English,Chrome,Windows,720,1280,8.695616666666666,
1058,default,block2,olivia,projective,0.02,11712,confess,51,confess,C,[],18,Yes,,Female,English,Chrome,Windows,720,1280,8.695616666666666,
1058,default,block2,emily,projective,0.01,4796,confirm,52,confirm,C,[],18,Yes,,Female,English,Chrome,Windows,720,1280,8.695616666666666,
1058,default,block2,garage,projective,0.02,6640,MC,53,MC,MC,[],18,Yes,,Female,English,Chrome,Windows,720,1280,8.695616666666666,
1058,default,block2,charley,projective,0.01,7092,think,54,think,C,[],18,Yes,,Female,English,Chrome,Windows,720,1280,8.695616666666666,
1058,default,block2,mary,projective,1,10339,inform,55,inform,C,[],18,Yes,,Female,English,Chrome,Windows,720,1280,8.695616666666666,
1058,default,block2,emma,projective,0.02,12865,announce,56,announce,C,[],18,Yes,,Female,English,Chrome,Windows,720,1280,8.695616666666666,
1058,default,block2,julian,projective,0.99,5564,be_annoyed,57,be_annoyed,C,[],18,Yes,,Female,English,Chrome,Windows,720,1280,8.695616666666666,
1053,default,block1,frank,ai,0,28557,discover,5,discover,C,[],22,Yes,interesting study but got a little confusing at times with all of the names for me. had to read some a few times. thank you!,Female,english,Chrome,Mac,900,1440,16.20456666666667,
1053,default,block1,jon,ai,0,13942,know,6,know,C,[],22,Yes,interesting study but got a little confusing at times with all of the names for me. had to read some a few times. thank you!,Female,english,Chrome,Mac,900,1440,16.20456666666667,
1053,default,block1,charley,ai,0,11534,reveal,7,reveal,C,[],22,Yes,interesting study but got a little confusing at times with all of the names for me. had to read some a few times. thank you!,Female,english,Chrome,Mac,900,1440,16.20456666666667,
1053,default,block1,mia,ai,0,27508,inform,8,inform,C,[],22,Yes,interesting study but got a little confusing at times with all of the names for me. had to read some a few times. thank you!,Female,english,Chrome,Mac,900,1440,16.20456666666667,
1053,default,block1,olivia,ai,0,7358,suggest,9,suggest,C,[],22,Yes,interesting study but got a little confusing at times with all of the names for me. had to read some a few times. thank you!,Female,english,Chrome,Mac,900,1440,16.20456666666667,
1053,default,block1,josie,ai,0.02,19873,confirm,10,confirm,C,[],22,Yes,interesting study but got a little confusing at times with all of the names for me. had to read some a few times. thank you!,Female,english,Chrome,Mac,900,1440,16.20456666666667,
1053,default,block1,ballet,ai,1,15124,MC,11,MC,MC,[],22,Yes,interesting study but got a little confusing at times with all of the names for me. had to read some a few times. thank you!,Female,english,Chrome,Mac,900,1440,16.20456666666667,
1053,default,block1,muffins,ai,1,19776,MC,12,MC,MC,[],22,Yes,interesting study but got a little confusing at times with all of the names for me. had to read some a few times. thank you!,Female,english,Chrome,Mac,900,1440,16.20456666666667,
1053,default,block1,emma,ai,0.01,26424,prove,13,prove,C,[],22,Yes,interesting study but got a little confusing at times with all of the names for me. had to read some a few times. thank you!,Female,english,Chrome,Mac,900,1440,16.20456666666667,
1053,default,block1,grace,ai,0,12348,admit,14,admit,C,[],22,Yes,interesting study but got a little confusing at times with all of the names for me. had to read some a few times. thank you!,Female,english,Chrome,Mac,900,1440,16.20456666666667,
1053,default,block1,kids,ai,0.47,11050,MC,15,MC,MC,[],22,Yes,interesting study but got a little confusing at times with all of the names for me. had to read some a few times. thank you!,Female,english,Chrome,Mac,900,1440,16.20456666666667,
1053,default,block1,jackson,ai,0.08,11105,establish,16,establish,C,[],22,Yes,interesting study but got a little confusing at times with all of the names for me. had to read some a few times. thank you!,Female,english,Chrome,Mac,900,1440,16.20456666666667,
1053,default,block1,emily,ai,0.02,15350,think,17,think,C,[],22,Yes,interesting study but got a little confusing at times with all of the names for me. had to read some a few times. thank you!,Female,english,Chrome,Mac,900,1440,16.20456666666667,
1053,default,block1,sophia,ai,0.04,11417,hear,18,hear,C,[],22,Yes,interesting study but got a little confusing at times with all of the names for me. had to read some a few times. thank you!,Female,english,Chrome,Mac,900,1440,16.20456666666667,
1053,default,block1,garage,ai,0.98,11747,MC,19,MC,MC,[],22,Yes,interesting study but got a little confusing at times with all of the names for me. had to read some a few times. thank you!,Female,english,Chrome,Mac,900,1440,16.20456666666667,
1053,default,block1,isabella,ai,0.02,12567,pretend,20,pretend,C,[],22,Yes,interesting study but got a little confusing at times with all of the names for me. had to read some a few times. thank you!,Female,english,Chrome,Mac,900,1440,16.20456666666667,
1053,default,block1,tony,ai,0.02,6569,announce,21,announce,C,[],22,Yes,interesting study but got a little confusing at times with all of the names for me. had to read some a few times. thank you!,Female,english,Chrome,Mac,900,1440,16.20456666666667,
1053,default,block1,hat,ai,0.99,6960,MC,22,MC,MC,[],22,Yes,interesting study but got a little confusing at times with all of the names for me. had to read some a few times. thank you!,Female,english,Chrome,Mac,900,1440,16.20456666666667,
1053,default,block1,jayden,ai,0.01,6769,acknowledge,23,acknowledge,C,[],22,Yes,interesting study but got a little confusing at times with all of the names for me. had to read some a few times. thank you!,Female,english,Chrome,Mac,900,1440,16.20456666666667,
1053,default,block1,pizza,ai,0.66,25374,MC,24,MC,MC,[],22,Yes,interesting study but got a little confusing at times with all of the names for me. had to read some a few times. thank you!,Female,english,Chrome,Mac,900,1440,16.20456666666667,
1053,default,block1,owen,ai,0.03,22754,say,25,say,C,[],22,Yes,interesting study but got a little confusing at times with all of the names for me. had to read some a few times. thank you!,Female,english,Chrome,Mac,900,1440,16.20456666666667,
1053,default,block1,danny,ai,0.01,10234,be_right,26,be_right,C,[],22,Yes,interesting study but got a little confusing at times with all of the names for me. had to read some a few times. thank you!,Female,english,Chrome,Mac,900,1440,16.20456666666667,
1053,default,block1,julian,ai,0.01,10798,see,27,see,C,[],22,Yes,interesting study but got a little confusing at times with all of the names for me. had to read some a few times. thank you!,Female,english,Chrome,Mac,900,1440,16.20456666666667,
1053,default,block1,josh,ai,0.01,7721,be_annoyed,28,be_annoyed,C,[],22,Yes,interesting study but got a little confusing at times with all of the names for me. had to read some a few times. thank you!,Female,english,Chrome,Mac,900,1440,16.20456666666667,
1053,default,block1,zoe,ai,0.02,40480,confess,29,confess,C,[],22,Yes,interesting study but got a little confusing at times with all of the names for me. had to read some a few times. thank you!,Female,english,Chrome,Mac,900,1440,16.20456666666667,
1053,default,block1,mary,ai,0,8364,demonstrate,30,demonstrate,C,[],22,Yes,interesting study but got a little confusing at times with all of the names for me. had to read some a few times. thank you!,Female,english,Chrome,Mac,900,1440,16.20456666666667,
1053,default,block2,hat,projective,0,12581,MC,32,MC,MC,[],22,Yes,interesting study but got a little confusing at times with all of the names for me. had to read some a few times. thank you!,Female,english,Chrome,Mac,900,1440,16.20456666666667,
1053,default,block2,charley,projective,0.93,15262,reveal,33,reveal,C,[],22,Yes,interesting study but got a little confusing at times with all of the names for me. had to read some a few times. thank you!,Female,english,Chrome,Mac,900,1440,16.20456666666667,
1053,default,block2,pizza,projective,0.01,7376,MC,34,MC,MC,[],22,Yes,interesting study but got a little confusing at times with all of the names for me. had to read some a few times. thank you!,Female,english,Chrome,Mac,900,1440,16.20456666666667,
1053,default,block2,jackson,projective,0.94,8442,establish,35,establish,C,[],22,Yes,interesting study but got a little confusing at times with all of the names for me. had to read some a few times. thank you!,Female,english,Chrome,Mac,900,1440,16.20456666666667,
1053,default,block2,julian,projective,0.91,6954,see,36,see,C,[],22,Yes,interesting study but got a little confusing at times with all of the names for me. had to read some a few times. thank you!,Female,english,Chrome,Mac,900,1440,16.20456666666667,
1053,default,block2,olivia,projective,0.03,8852,suggest,37,suggest,C,[],22,Yes,interesting study but got a little confusing at times with all of the names for me. had to read some a few times. thank you!,Female,english,Chrome,Mac,900,1440,16.20456666666667,
1053,default,block2,isabella,projective,0.02,13898,pretend,38,pretend,C,[],22,Yes,interesting study but got a little confusing at times with all of the names for me. had to read some a few times. thank you!,Female,english,Chrome,Mac,900,1440,16.20456666666667,
1053,default,block2,josie,projective,0.02,8256,confirm,39,confirm,C,[],22,Yes,interesting study but got a little confusing at times with all of the names for me. had to read some a few times. thank you!,Female,english,Chrome,Mac,900,1440,16.20456666666667,
1053,default,block2,jon,projective,0.93,91978,know,40,know,C,[],22,Yes,interesting study but got a little confusing at times with all of the names for me. had to read some a few times. thank you!,Female,english,Chrome,Mac,900,1440,16.20456666666667,
1053,default,block2,muffins,projective,0,46224,MC,41,MC,MC,[],22,Yes,interesting study but got a little confusing at times with all of the names for me. had to read some a few times. thank you!,Female,english,Chrome,Mac,900,1440,16.20456666666667,
1053,default,block2,grace,projective,0.99,6841,admit,42,admit,C,[],22,Yes,interesting study but got a little confusing at times with all of the names for me. had to read some a few times. thank you!,Female,english,Chrome,Mac,900,1440,16.20456666666667,
1053,default,block2,frank,projective,0.96,4326,discover,43,discover,C,[],22,Yes,interesting study but got a little confusing at times with all of the names for me. had to read some a few times. thank you!,Female,english,Chrome,Mac,900,1440,16.20456666666667,
1053,default,block2,tony,projective,0.42,9770,announce,44,announce,C,[],22,Yes,interesting study but got a little confusing at times with all of the names for me. had to read some a few times. thank you!,Female,english,Chrome,Mac,900,1440,16.20456666666667,
1053,default,block2,jayden,projective,0.98,8539,acknowledge,45,acknowledge,C,[],22,Yes,interesting study but got a little confusing at times with all of the names for me. had to read some a few times. thank you!,Female,english,Chrome,Mac,900,1440,16.20456666666667,
1053,default,block2,mia,projective,0.94,10487,inform,46,inform,C,[],22,Yes,interesting study but got a little confusing at times with all of the names for me. had to read some a few times. thank you!,Female,english,Chrome,Mac,900,1440,16.20456666666667,
1053,default,block2,mary,projective,0.56,6031,demonstrate,47,demonstrate,C,[],22,Yes,interesting study but got a little confusing at times with all of the names for me. had to read some a few times. thank you!,Female,english,Chrome,Mac,900,1440,16.20456666666667,
1053,default,block2,josh,projective,0.95,9439,be_annoyed,48,be_annoyed,C,[],22,Yes,interesting study but got a little confusing at times with all of the names for me. had to read some a few times. thank you!,Female,english,Chrome,Mac,900,1440,16.20456666666667,
1053,default,block2,ballet,projective,0,7257,MC,49,MC,MC,[],22,Yes,interesting study but got a little confusing at times with all of the names for me. had to read some a few times. thank you!,Female,english,Chrome,Mac,900,1440,16.20456666666667,
1053,default,block2,zoe,projective,0.48,8847,confess,50,confess,C,[],22,Yes,interesting study but got a little confusing at times with all of the names for me. had to read some a few times. thank you!,Female,english,Chrome,Mac,900,1440,16.20456666666667,
1053,default,block2,danny,projective,0,5198,be_right,51,be_right,C,[],22,Yes,interesting study but got a little confusing at times with all of the names for me. had to read some a few times. thank you!,Female,english,Chrome,Mac,900,1440,16.20456666666667,
1053,default,block2,kids,projective,0,7623,MC,52,MC,MC,[],22,Yes,interesting study but got a little confusing at times with all of the names for me. had to read some a few times. thank you!,Female,english,Chrome,Mac,900,1440,16.20456666666667,
1053,default,block2,emily,projective,0,13115,think,53,think,C,[],22,Yes,interesting study but got a little confusing at times with all of the names for me. had to read some a few times. thank you!,Female,english,Chrome,Mac,900,1440,16.20456666666667,
1053,default,block2,owen,projective,0,10644,say,54,say,C,[],22,Yes,interesting study but got a little confusing at times with all of the names for me. had to read some a few times. thank you!,Female,english,Chrome,Mac,900,1440,16.20456666666667,
1053,default,block2,sophia,projective,0.98,8865,hear,55,hear,C,[],22,Yes,interesting study but got a little confusing at times with all of the names for me. had to read some a few times. thank you!,Female,english,Chrome,Mac,900,1440,16.20456666666667,
1053,default,block2,emma,projective,0.02,4837,prove,56,prove,C,[],22,Yes,interesting study but got a little confusing at times with all of the names for me. had to read some a few times. thank you!,Female,english,Chrome,Mac,900,1440,16.20456666666667,
1053,default,block2,garage,projective,0,5685,MC,57,MC,MC,[],22,Yes,interesting study but got a little confusing at times with all of the names for me. had to read some a few times. thank you!,Female,english,Chrome,Mac,900,1440,16.20456666666667,
1057,default,block1,josie,ai,0,17468,hear,5,hear,C,[],31,Yes,,Female,english,Chrome,Mac,900,1440,9.9597,
1057,default,block1,emma,ai,0.04,5750,see,6,see,C,[],31,Yes,,Female,english,Chrome,Mac,900,1440,9.9597,
1057,default,block1,jon,ai,0.03,11873,acknowledge,7,acknowledge,C,[],31,Yes,,Female,english,Chrome,Mac,900,1440,9.9597,
1057,default,block1,kids,ai,0.98,19590,MC,8,MC,MC,[],31,Yes,,Female,english,Chrome,Mac,900,1440,9.9597,
1057,default,block1,mary,ai,0.02,9931,be_annoyed,9,be_annoyed,C,[],31,Yes,,Female,english,Chrome,Mac,900,1440,9.9597,
1057,default,block1,zoe,ai,0.02,11079,confirm,10,confirm,C,[],31,Yes,,Female,english,Chrome,Mac,900,1440,9.9597,
1057,default,block1,sophia,ai,0.03,7948,reveal,11,reveal,C,[],31,Yes,,Female,english,Chrome,Mac,900,1440,9.9597,
1057,default,block1,garage,ai,0.98,12229,MC,12,MC,MC,[],31,Yes,,Female,english,Chrome,Mac,900,1440,9.9597,
1057,default,block1,danny,ai,0.04,20369,be_right,13,be_right,C,[],31,Yes,,Female,english,Chrome,Mac,900,1440,9.9597,
1057,default,block1,charley,ai,0.03,10561,know,14,know,C,[],31,Yes,,Female,english,Chrome,Mac,900,1440,9.9597,
1057,default,block1,jackson,ai,0.03,13183,announce,15,announce,C,[],31,Yes,,Female,english,Chrome,Mac,900,1440,9.9597,
1057,default,block1,olivia,ai,0.03,13671,pretend,16,pretend,C,[],31,Yes,,Female,english,Chrome,Mac,900,1440,9.9597,
1057,default,block1,grace,ai,0.02,12913,inform,17,inform,C,[],31,Yes,,Female,english,Chrome,Mac,900,1440,9.9597,
1057,default,block1,hat,ai,0.99,11559,MC,18,MC,MC,[],31,Yes,,Female,english,Chrome,Mac,900,1440,9.9597,
1057,default,block1,pizza,ai,0.99,15639,MC,19,MC,MC,[],31,Yes,,Female,english,Chrome,Mac,900,1440,9.9597,
1057,default,block1,frank,ai,0.03,5086,admit,20,admit,C,[],31,Yes,,Female,english,Chrome,Mac,900,1440,9.9597,
1057,default,block1,tony,ai,0.03,5102,think,21,think,C,[],31,Yes,,Female,english,Chrome,Mac,900,1440,9.9597,
1057,default,block1,mia,ai,0.02,7137,say,22,say,C,[],31,Yes,,Female,english,Chrome,Mac,900,1440,9.9597,
1057,default,block1,ballet,ai,0.96,6509,MC,23,MC,MC,[],31,Yes,,Female,english,Chrome,Mac,900,1440,9.9597,
1057,default,block1,josh,ai,0.01,5034,confess,24,confess,C,[],31,Yes,,Female,english,Chrome,Mac,900,1440,9.9597,
1057,default,block1,owen,ai,0.02,14930,discover,25,discover,C,[],31,Yes,,Female,english,Chrome,Mac,900,1440,9.9597,
1057,default,block1,emily,ai,0.01,12369,prove,26,prove,C,[],31,Yes,,Female,english,Chrome,Mac,900,1440,9.9597,
1057,default,block1,isabella,ai,0.02,6676,demonstrate,27,demonstrate,C,[],31,Yes,,Female,english,Chrome,Mac,900,1440,9.9597,
1057,default,block1,julian,ai,0.02,3599,establish,28,establish,C,[],31,Yes,,Female,english,Chrome,Mac,900,1440,9.9597,
1057,default,block1,muffins,ai,0.98,5177,MC,29,MC,MC,[],31,Yes,,Female,english,Chrome,Mac,900,1440,9.9597,
1057,default,block1,jayden,ai,0.03,7271,suggest,30,suggest,C,[],31,Yes,,Female,english,Chrome,Mac,900,1440,9.9597,
1057,default,block2,pizza,projective,0.03,13282,MC,32,MC,MC,[],31,Yes,,Female,english,Chrome,Mac,900,1440,9.9597,
1057,default,block2,jon,projective,0.99,9995,acknowledge,33,acknowledge,C,[],31,Yes,,Female,english,Chrome,Mac,900,1440,9.9597,
1057,default,block2,julian,projective,0.03,8983,establish,34,establish,C,[],31,Yes,,Female,english,Chrome,Mac,900,1440,9.9597,
1057,default,block2,tony,projective,0.02,7064,think,35,think,C,[],31,Yes,,Female,english,Chrome,Mac,900,1440,9.9597,
1057,default,block2,mia,projective,0.03,7053,say,36,say,C,[],31,Yes,,Female,english,Chrome,Mac,900,1440,9.9597,
1057,default,block2,sophia,projective,0.03,4135,reveal,37,reveal,C,[],31,Yes,,Female,english,Chrome,Mac,900,1440,9.9597,
1057,default,block2,ballet,projective,0.02,7957,MC,38,MC,MC,[],31,Yes,,Female,english,Chrome,Mac,900,1440,9.9597,
1057,default,block2,jackson,projective,0.29,12538,announce,39,announce,C,[],31,Yes,,Female,english,Chrome,Mac,900,1440,9.9597,
1057,default,block2,hat,projective,0.02,7168,MC,40,MC,MC,[],31,Yes,,Female,english,Chrome,Mac,900,1440,9.9597,
1057,default,block2,isabella,projective,0.67,13965,demonstrate,41,demonstrate,C,[],31,Yes,,Female,english,Chrome,Mac,900,1440,9.9597,
1057,default,block2,olivia,projective,0.27,19338,pretend,42,pretend,C,[],31,Yes,,Female,english,Chrome,Mac,900,1440,9.9597,
1057,default,block2,emily,projective,0.07,10390,prove,43,prove,C,[],31,Yes,,Female,english,Chrome,Mac,900,1440,9.9597,
1057,default,block2,muffins,projective,0.03,5907,MC,44,MC,MC,[],31,Yes,,Female,english,Chrome,Mac,900,1440,9.9597,
1057,default,block2,josie,projective,0.06,7967,hear,45,hear,C,[],31,Yes,,Female,english,Chrome,Mac,900,1440,9.9597,
1057,default,block2,owen,projective,0.66,7532,discover,46,discover,C,[],31,Yes,,Female,english,Chrome,Mac,900,1440,9.9597,
1057,default,block2,garage,projective,0.05,7449,MC,47,MC,MC,[],31,Yes,,Female,english,Chrome,Mac,900,1440,9.9597,
1057,default,block2,emma,projective,0.9,10166,see,48,see,C,[],31,Yes,,Female,english,Chrome,Mac,900,1440,9.9597,
1057,default,block2,kids,projective,0.12,7404,MC,49,MC,MC,[],31,Yes,,Female,english,Chrome,Mac,900,1440,9.9597,
1057,default,block2,zoe,projective,0.25,8400,confirm,50,confirm,C,[],31,Yes,,Female,english,Chrome,Mac,900,1440,9.9597,
1057,default,block2,mary,projective,0.93,7859,be_annoyed,51,be_annoyed,C,[],31,Yes,,Female,english,Chrome,Mac,900,1440,9.9597,
1057,default,block2,charley,projective,0.92,4795,know,52,know,C,[],31,Yes,,Female,english,Chrome,Mac,900,1440,9.9597,
1057,default,block2,grace,projective,0.9,6834,inform,53,inform,C,[],31,Yes,,Female,english,Chrome,Mac,900,1440,9.9597,
1057,default,block2,frank,projective,0.72,13292,admit,54,admit,C,[],31,Yes,,Female,english,Chrome,Mac,900,1440,9.9597,
1057,default,block2,josh,projective,0.68,10141,confess,55,confess,C,[],31,Yes,,Female,english,Chrome,Mac,900,1440,9.9597,
1057,default,block2,danny,projective,0.25,7391,be_right,56,be_right,C,[],31,Yes,,Female,english,Chrome,Mac,900,1440,9.9597,
1057,default,block2,jayden,projective,0.28,21925,suggest,57,suggest,C,[],31,Yes,,Female,english,Chrome,Mac,900,1440,9.9597,
1054,default,block1,frank,projective,0.95,13908,know,5,know,C,[],32,Yes,Some of the sentence structures were very confusing/they were used in a way that Im not use to hearing. ,Female,English,Safari,iPhone/iPod,812,375,20.995533333333334,
1054,default,block1,ballet,projective,0.09,13948,MC,6,MC,MC,[],32,Yes,Some of the sentence structures were very confusing/they were used in a way that Im not use to hearing. ,Female,English,Safari,iPhone/iPod,812,375,20.995533333333334,
1054,default,block1,mary,projective,0,41756,pretend,7,pretend,C,[],32,Yes,Some of the sentence structures were very confusing/they were used in a way that Im not use to hearing. ,Female,English,Safari,iPhone/iPod,812,375,20.995533333333334,
1054,default,block1,garage,projective,0.14,25676,MC,8,MC,MC,[],32,Yes,Some of the sentence structures were very confusing/they were used in a way that Im not use to hearing. ,Female,English,Safari,iPhone/iPod,812,375,20.995533333333334,
1054,default,block1,kids,projective,0.12,21125,MC,9,MC,MC,[],32,Yes,Some of the sentence structures were very confusing/they were used in a way that Im not use to hearing. ,Female,English,Safari,iPhone/iPod,812,375,20.995533333333334,
1054,default,block1,hat,projective,0.18,20990,MC,10,MC,MC,[],32,Yes,Some of the sentence structures were very confusing/they were used in a way that Im not use to hearing. ,Female,English,Safari,iPhone/iPod,812,375,20.995533333333334,
1054,default,block1,isabella,projective,0.99,16149,hear,11,hear,C,[],32,Yes,Some of the sentence structures were very confusing/they were used in a way that Im not use to hearing. ,Female,English,Safari,iPhone/iPod,812,375,20.995533333333334,
1054,default,block1,jackson,projective,0.92,22506,establish,12,establish,C,[],32,Yes,Some of the sentence structures were very confusing/they were used in a way that Im not use to hearing. ,Female,English,Safari,iPhone/iPod,812,375,20.995533333333334,
1054,default,block1,danny,projective,0.9,10425,acknowledge,13,acknowledge,C,[],32,Yes,Some of the sentence structures were very confusing/they were used in a way that Im not use to hearing. ,Female,English,Safari,iPhone/iPod,812,375,20.995533333333334,
1054,default,block1,muffins,projective,0.03,12945,MC,14,MC,MC,[],32,Yes,Some of the sentence structures were very confusing/they were used in a way that Im not use to hearing. ,Female,English,Safari,iPhone/iPod,812,375,20.995533333333334,
1054,default,block1,charley,projective,0.95,13393,see,15,see,C,[],32,Yes,Some of the sentence structures were very confusing/they were used in a way that Im not use to hearing. ,Female,English,Safari,iPhone/iPod,812,375,20.995533333333334,
1054,default,block1,jon,projective,0.73,14186,reveal,16,reveal,C,[],32,Yes,Some of the sentence structures were very confusing/they were used in a way that Im not use to hearing. ,Female,English,Safari,iPhone/iPod,812,375,20.995533333333334,
1054,default,block1,julian,projective,0.24,16631,say,17,say,C,[],32,Yes,Some of the sentence structures were very confusing/they were used in a way that Im not use to hearing. ,Female,English,Safari,iPhone/iPod,812,375,20.995533333333334,
1054,default,block1,sophia,projective,0,9027,be_right,18,be_right,C,[],32,Yes,Some of the sentence structures were very confusing/they were used in a way that Im not use to hearing. ,Female,English,Safari,iPhone/iPod,812,375,20.995533333333334,
1054,default,block1,jayden,projective,0,26697,confirm,19,confirm,C,[],32,Yes,Some of the sentence structures were very confusing/they were used in a way that Im not use to hearing. ,Female,English,Safari,iPhone/iPod,812,375,20.995533333333334,
1054,default,block1,owen,projective,0.65,42630,confess,20,confess,C,[],32,Yes,Some of the sentence structures were very confusing/they were used in a way that Im not use to hearing. ,Female,English,Safari,iPhone/iPod,812,375,20.995533333333334,
1054,default,block1,tony,projective,0.2,10497,prove,21,prove,C,[],32,Yes,Some of the sentence structures were very confusing/they were used in a way that Im not use to hearing. ,Female,English,Safari,iPhone/iPod,812,375,20.995533333333334,
1054,default,block1,josie,projective,0.05,21313,think,22,think,C,[],32,Yes,Some of the sentence structures were very confusing/they were used in a way that Im not use to hearing. ,Female,English,Safari,iPhone/iPod,812,375,20.995533333333334,
1054,default,block1,olivia,projective,0.28,33753,admit,23,admit,C,[],32,Yes,Some of the sentence structures were very confusing/they were used in a way that Im not use to hearing. ,Female,English,Safari,iPhone/iPod,812,375,20.995533333333334,
1054,default,block1,zoe,projective,0.97,14587,inform,24,inform,C,[],32,Yes,Some of the sentence structures were very confusing/they were used in a way that Im not use to hearing. ,Female,English,Safari,iPhone/iPod,812,375,20.995533333333334,
1054,default,block1,grace,projective,0.7,14992,suggest,25,suggest,C,[],32,Yes,Some of the sentence structures were very confusing/they were used in a way that Im not use to hearing. ,Female,English,Safari,iPhone/iPod,812,375,20.995533333333334,
1054,default,block1,emma,projective,0.19,45360,demonstrate,26,demonstrate,C,[],32,Yes,Some of the sentence structures were very confusing/they were used in a way that Im not use to hearing. ,Female,English,Safari,iPhone/iPod,812,375,20.995533333333334,
1054,default,block1,pizza,projective,0,19055,MC,27,MC,MC,[],32,Yes,Some of the sentence structures were very confusing/they were used in a way that Im not use to hearing. ,Female,English,Safari,iPhone/iPod,812,375,20.995533333333334,
1054,default,block1,josh,projective,0.99,17333,discover,28,discover,C,[],32,Yes,Some of the sentence structures were very confusing/they were used in a way that Im not use to hearing. ,Female,English,Safari,iPhone/iPod,812,375,20.995533333333334,
1054,default,block1,emily,projective,0.97,11343,announce,29,announce,C,[],32,Yes,Some of the sentence structures were very confusing/they were used in a way that Im not use to hearing. ,Female,English,Safari,iPhone/iPod,812,375,20.995533333333334,
1054,default,block1,mia,projective,0.96,9138,be_annoyed,30,be_annoyed,C,[],32,Yes,Some of the sentence structures were very confusing/they were used in a way that Im not use to hearing. ,Female,English,Safari,iPhone/iPod,812,375,20.995533333333334,
1054,default,block2,ballet,ai,0.84,12223,MC,32,MC,MC,[],32,Yes,Some of the sentence structures were very confusing/they were used in a way that Im not use to hearing. ,Female,English,Safari,iPhone/iPod,812,375,20.995533333333334,
1054,default,block2,charley,ai,0.93,10194,see,33,see,C,[],32,Yes,Some of the sentence structures were very confusing/they were used in a way that Im not use to hearing. ,Female,English,Safari,iPhone/iPod,812,375,20.995533333333334,
1054,default,block2,grace,ai,0.66,26398,suggest,34,suggest,C,[],32,Yes,Some of the sentence structures were very confusing/they were used in a way that Im not use to hearing. ,Female,English,Safari,iPhone/iPod,812,375,20.995533333333334,
1054,default,block2,josh,ai,0.16,14023,discover,35,discover,C,[],32,Yes,Some of the sentence structures were very confusing/they were used in a way that Im not use to hearing. ,Female,English,Safari,iPhone/iPod,812,375,20.995533333333334,
1054,default,block2,tony,ai,0.02,14013,prove,36,prove,C,[],32,Yes,Some of the sentence structures were very confusing/they were used in a way that Im not use to hearing. ,Female,English,Safari,iPhone/iPod,812,375,20.995533333333334,
1054,default,block2,frank,ai,0.01,14039,know,37,know,C,[],32,Yes,Some of the sentence structures were very confusing/they were used in a way that Im not use to hearing. ,Female,English,Safari,iPhone/iPod,812,375,20.995533333333334,
1054,default,block2,julian,ai,0.01,9261,say,38,say,C,[],32,Yes,Some of the sentence structures were very confusing/they were used in a way that Im not use to hearing. ,Female,English,Safari,iPhone/iPod,812,375,20.995533333333334,
1054,default,block2,jackson,ai,0.04,13097,establish,39,establish,C,[],32,Yes,Some of the sentence structures were very confusing/they were used in a way that Im not use to hearing. ,Female,English,Safari,iPhone/iPod,812,375,20.995533333333334,
1054,default,block2,muffins,ai,0.99,20223,MC,40,MC,MC,[],32,Yes,Some of the sentence structures were very confusing/they were used in a way that Im not use to hearing. ,Female,English,Safari,iPhone/iPod,812,375,20.995533333333334,
1054,default,block2,mia,ai,0,10455,be_annoyed,41,be_annoyed,C,[],32,Yes,Some of the sentence structures were very confusing/they were used in a way that Im not use to hearing. ,Female,English,Safari,iPhone/iPod,812,375,20.995533333333334,
1054,default,block2,sophia,ai,0.03,20676,be_right,42,be_right,C,[],32,Yes,Some of the sentence structures were very confusing/they were used in a way that Im not use to hearing. ,Female,English,Safari,iPhone/iPod,812,375,20.995533333333334,
1054,default,block2,hat,ai,0.95,6987,MC,43,MC,MC,[],32,Yes,Some of the sentence structures were very confusing/they were used in a way that Im not use to hearing. ,Female,English,Safari,iPhone/iPod,812,375,20.995533333333334,
1054,default,block2,isabella,ai,0.04,6901,hear,44,hear,C,[],32,Yes,Some of the sentence structures were very confusing/they were used in a way that Im not use to hearing. ,Female,English,Safari,iPhone/iPod,812,375,20.995533333333334,
1054,default,block2,jon,ai,0.04,6109,reveal,45,reveal,C,[],32,Yes,Some of the sentence structures were very confusing/they were used in a way that Im not use to hearing. ,Female,English,Safari,iPhone/iPod,812,375,20.995533333333334,
1054,default,block2,zoe,ai,0.01,9748,inform,46,inform,C,[],32,Yes,Some of the sentence structures were very confusing/they were used in a way that Im not use to hearing. ,Female,English,Safari,iPhone/iPod,812,375,20.995533333333334,
1054,default,block2,josie,ai,0.65,36423,think,47,think,C,[],32,Yes,Some of the sentence structures were very confusing/they were used in a way that Im not use to hearing. ,Female,English,Safari,iPhone/iPod,812,375,20.995533333333334,
1054,default,block2,mary,ai,0.05,11369,pretend,48,pretend,C,[],32,Yes,Some of the sentence structures were very confusing/they were used in a way that Im not use to hearing. ,Female,English,Safari,iPhone/iPod,812,375,20.995533333333334,
1054,default,block2,kids,ai,0.32,19453,MC,49,MC,MC,[],32,Yes,Some of the sentence structures were very confusing/they were used in a way that Im not use to hearing. ,Female,English,Safari,iPhone/iPod,812,375,20.995533333333334,
1054,default,block2,olivia,ai,0.04,7935,admit,50,admit,C,[],32,Yes,Some of the sentence structures were very confusing/they were used in a way that Im not use to hearing. ,Female,English,Safari,iPhone/iPod,812,375,20.995533333333334,
1054,default,block2,garage,ai,1,13325,MC,51,MC,MC,[],32,Yes,Some of the sentence structures were very confusing/they were used in a way that Im not use to hearing. ,Female,English,Safari,iPhone/iPod,812,375,20.995533333333334,
1054,default,block2,pizza,ai,0.99,14706,MC,52,MC,MC,[],32,Yes,Some of the sentence structures were very confusing/they were used in a way that Im not use to hearing. ,Female,English,Safari,iPhone/iPod,812,375,20.995533333333334,
1054,default,block2,danny,ai,0.04,10145,acknowledge,53,acknowledge,C,[],32,Yes,Some of the sentence structures were very confusing/they were used in a way that Im not use to hearing. ,Female,English,Safari,iPhone/iPod,812,375,20.995533333333334,
1054,default,block2,emily,ai,0,17312,announce,54,announce,C,[],32,Yes,Some of the sentence structures were very confusing/they were used in a way that Im not use to hearing. ,Female,English,Safari,iPhone/iPod,812,375,20.995533333333334,
1054,default,block2,owen,ai,0.01,9453,confess,55,confess,C,[],32,Yes,Some of the sentence structures were very confusing/they were used in a way that Im not use to hearing. ,Female,English,Safari,iPhone/iPod,812,375,20.995533333333334,
1054,default,block2,emma,ai,0.01,10715,demonstrate,56,demonstrate,C,[],32,Yes,Some of the sentence structures were very confusing/they were used in a way that Im not use to hearing. ,Female,English,Safari,iPhone/iPod,812,375,20.995533333333334,
1054,default,block2,jayden,ai,0.01,7341,confirm,57,confirm,C,[],32,Yes,Some of the sentence structures were very confusing/they were used in a way that Im not use to hearing. ,Female,English,Safari,iPhone/iPod,812,375,20.995533333333334,
1061,default,block1,grace,ai,0.02,8802,say,5,say,C,[],23,Yes,,Female,English,Chrome,Mac,1200,1920,8.559816666666666,
1061,default,block1,danny,ai,0.03,6532,be_right,6,be_right,C,[],23,Yes,,Female,English,Chrome,Mac,1200,1920,8.559816666666666,
1061,default,block1,muffins,ai,0.98,8337,MC,7,MC,MC,[],23,Yes,,Female,English,Chrome,Mac,1200,1920,8.559816666666666,
1061,default,block1,hat,ai,0.92,18599,MC,8,MC,MC,[],23,Yes,,Female,English,Chrome,Mac,1200,1920,8.559816666666666,
1061,default,block1,garage,ai,0.91,7055,MC,9,MC,MC,[],23,Yes,,Female,English,Chrome,Mac,1200,1920,8.559816666666666,
1061,default,block1,pizza,ai,0.93,10425,MC,10,MC,MC,[],23,Yes,,Female,English,Chrome,Mac,1200,1920,8.559816666666666,
1061,default,block1,josie,ai,0,6852,see,11,see,C,[],23,Yes,,Female,English,Chrome,Mac,1200,1920,8.559816666666666,
1061,default,block1,olivia,ai,0.04,19639,pretend,12,pretend,C,[],23,Yes,,Female,English,Chrome,Mac,1200,1920,8.559816666666666,
1061,default,block1,charley,ai,0.01,10682,establish,13,establish,C,[],23,Yes,,Female,English,Chrome,Mac,1200,1920,8.559816666666666,
1061,default,block1,kids,ai,0.98,8299,MC,14,MC,MC,[],23,Yes,,Female,English,Chrome,Mac,1200,1920,8.559816666666666,
1061,default,block1,jon,ai,0.01,7260,suggest,15,suggest,C,[],23,Yes,,Female,English,Chrome,Mac,1200,1920,8.559816666666666,
1061,default,block1,owen,ai,0,6462,know,16,know,C,[],23,Yes,,Female,English,Chrome,Mac,1200,1920,8.559816666666666,
1061,default,block1,ballet,ai,0.95,8045,MC,17,MC,MC,[],23,Yes,,Female,English,Chrome,Mac,1200,1920,8.559816666666666,
1061,default,block1,frank,ai,0.04,5131,discover,18,discover,C,[],23,Yes,,Female,English,Chrome,Mac,1200,1920,8.559816666666666,
1061,default,block1,emily,ai,0.02,5306,confess,19,confess,C,[],23,Yes,,Female,English,Chrome,Mac,1200,1920,8.559816666666666,
1061,default,block1,sophia,ai,0.05,11418,confirm,20,confirm,C,[],23,Yes,,Female,English,Chrome,Mac,1200,1920,8.559816666666666,
1061,default,block1,tony,ai,0.04,4285,reveal,21,reveal,C,[],23,Yes,,Female,English,Chrome,Mac,1200,1920,8.559816666666666,
1061,default,block1,jayden,ai,0.02,10978,inform,22,inform,C,[],23,Yes,,Female,English,Chrome,Mac,1200,1920,8.559816666666666,
1061,default,block1,emma,ai,0.01,6932,hear,23,hear,C,[],23,Yes,,Female,English,Chrome,Mac,1200,1920,8.559816666666666,
1061,default,block1,mary,ai,0.01,7025,acknowledge,24,acknowledge,C,[],23,Yes,,Female,English,Chrome,Mac,1200,1920,8.559816666666666,
1061,default,block1,mia,ai,0.03,8286,demonstrate,25,demonstrate,C,[],23,Yes,,Female,English,Chrome,Mac,1200,1920,8.559816666666666,
1061,default,block1,isabella,ai,0.03,8318,think,26,think,C,[],23,Yes,,Female,English,Chrome,Mac,1200,1920,8.559816666666666,
1061,default,block1,zoe,ai,0.01,4798,prove,27,prove,C,[],23,Yes,,Female,English,Chrome,Mac,1200,1920,8.559816666666666,
1061,default,block1,jackson,ai,0.01,5083,admit,28,admit,C,[],23,Yes,,Female,English,Chrome,Mac,1200,1920,8.559816666666666,
1061,default,block1,josh,ai,0.02,7551,announce,29,announce,C,[],23,Yes,,Female,English,Chrome,Mac,1200,1920,8.559816666666666,
1061,default,block1,julian,ai,0.02,8194,be_annoyed,30,be_annoyed,C,[],23,Yes,,Female,English,Chrome,Mac,1200,1920,8.559816666666666,
1061,default,block2,frank,projective,0.98,8062,discover,32,discover,C,[],23,Yes,,Female,English,Chrome,Mac,1200,1920,8.559816666666666,
1061,default,block2,kids,projective,0.05,11256,MC,33,MC,MC,[],23,Yes,,Female,English,Chrome,Mac,1200,1920,8.559816666666666,
1061,default,block2,jon,projective,0.01,5688,suggest,34,suggest,C,[],23,Yes,,Female,English,Chrome,Mac,1200,1920,8.559816666666666,
1061,default,block2,emma,projective,0.96,6909,hear,35,hear,C,[],23,Yes,,Female,English,Chrome,Mac,1200,1920,8.559816666666666,
1061,default,block2,jayden,projective,0.98,10691,inform,36,inform,C,[],23,Yes,,Female,English,Chrome,Mac,1200,1920,8.559816666666666,
1061,default,block2,zoe,projective,0.02,44644,prove,37,prove,C,[],23,Yes,,Female,English,Chrome,Mac,1200,1920,8.559816666666666,
1061,default,block2,grace,projective,0.01,7690,say,38,say,C,[],23,Yes,,Female,English,Chrome,Mac,1200,1920,8.559816666666666,
1061,default,block2,owen,projective,0.96,7010,know,39,know,C,[],23,Yes,,Female,English,Chrome,Mac,1200,1920,8.559816666666666,
1061,default,block2,ballet,projective,0.02,8937,MC,40,MC,MC,[],23,Yes,,Female,English,Chrome,Mac,1200,1920,8.559816666666666,
1061,default,block2,danny,projective,0.01,8616,be_right,41,be_right,C,[],23,Yes,,Female,English,Chrome,Mac,1200,1920,8.559816666666666,
1061,default,block2,isabella,projective,0.02,17167,think,42,think,C,[],23,Yes,,Female,English,Chrome,Mac,1200,1920,8.559816666666666,
1061,default,block2,hat,projective,0.02,27081,MC,43,MC,MC,[],23,Yes,,Female,English,Chrome,Mac,1200,1920,8.559816666666666,
1061,default,block2,mia,projective,0.97,6754,demonstrate,44,demonstrate,C,[],23,Yes,,Female,English,Chrome,Mac,1200,1920,8.559816666666666,
1061,default,block2,jackson,projective,0.02,6616,admit,45,admit,C,[],23,Yes,,Female,English,Chrome,Mac,1200,1920,8.559816666666666,
1061,default,block2,garage,projective,0.02,5905,MC,46,MC,MC,[],23,Yes,,Female,English,Chrome,Mac,1200,1920,8.559816666666666,
1061,default,block2,charley,projective,0.02,7991,establish,47,establish,C,[],23,Yes,,Female,English,Chrome,Mac,1200,1920,8.559816666666666,
1061,default,block2,julian,projective,0.98,4808,be_annoyed,48,be_annoyed,C,[],23,Yes,,Female,English,Chrome,Mac,1200,1920,8.559816666666666,
1061,default,block2,mary,projective,0.99,6780,acknowledge,49,acknowledge,C,[],23,Yes,,Female,English,Chrome,Mac,1200,1920,8.559816666666666,
1061,default,block2,tony,projective,0.01,6565,reveal,50,reveal,C,[],23,Yes,,Female,English,Chrome,Mac,1200,1920,8.559816666666666,
1061,default,block2,olivia,projective,0.01,6145,pretend,51,pretend,C,[],23,Yes,,Female,English,Chrome,Mac,1200,1920,8.559816666666666,
1061,default,block2,emily,projective,0.02,7786,confess,52,confess,C,[],23,Yes,,Female,English,Chrome,Mac,1200,1920,8.559816666666666,
1061,default,block2,sophia,projective,0,4406,confirm,53,confirm,C,[],23,Yes,,Female,English,Chrome,Mac,1200,1920,8.559816666666666,
1061,default,block2,josh,projective,0.99,8236,announce,54,announce,C,[],23,Yes,,Female,English,Chrome,Mac,1200,1920,8.559816666666666,
1061,default,block2,muffins,projective,0.02,5666,MC,55,MC,MC,[],23,Yes,,Female,English,Chrome,Mac,1200,1920,8.559816666666666,
1061,default,block2,josie,projective,0.97,6515,see,56,see,C,[],23,Yes,,Female,English,Chrome,Mac,1200,1920,8.559816666666666,
1061,default,block2,pizza,projective,0.02,6936,MC,57,MC,MC,[],23,Yes,,Female,English,Chrome,Mac,1200,1920,8.559816666666666,
1056,default,block1,jayden,ai,0,23376,be_annoyed,5,be_annoyed,C,[],20,Yes,N/A,Male,English,Chrome,Windows,864,1536,10.3662,
1056,default,block1,tony,ai,0,11125,be_right,6,be_right,C,[],20,Yes,N/A,Male,English,Chrome,Windows,864,1536,10.3662,
1056,default,block1,hat,ai,1,19573,MC,7,MC,MC,[],20,Yes,N/A,Male,English,Chrome,Windows,864,1536,10.3662,
1056,default,block1,jackson,ai,0.01,11065,suggest,8,suggest,C,[],20,Yes,N/A,Male,English,Chrome,Windows,864,1536,10.3662,
1056,default,block1,pizza,ai,0.79,8947,MC,9,MC,MC,[],20,Yes,N/A,Male,English,Chrome,Windows,864,1536,10.3662,
1056,default,block1,kids,ai,0,21289,MC,10,MC,MC,[],20,Yes,N/A,Male,English,Chrome,Windows,864,1536,10.3662,
1056,default,block1,danny,ai,0,7926,announce,11,announce,C,[],20,Yes,N/A,Male,English,Chrome,Windows,864,1536,10.3662,
1056,default,block1,julian,ai,0.02,6749,discover,12,discover,C,[],20,Yes,N/A,Male,English,Chrome,Windows,864,1536,10.3662,
1056,default,block1,mary,ai,0,19228,acknowledge,13,acknowledge,C,[],20,Yes,N/A,Male,English,Chrome,Windows,864,1536,10.3662,
1056,default,block1,emma,ai,0.05,5171,say,14,say,C,[],20,Yes,N/A,Male,English,Chrome,Windows,864,1536,10.3662,
1056,default,block1,charley,ai,0.02,9397,confirm,15,confirm,C,[],20,Yes,N/A,Male,English,Chrome,Windows,864,1536,10.3662,
1056,default,block1,jon,ai,0.03,8199,hear,16,hear,C,[],20,Yes,N/A,Male,English,Chrome,Windows,864,1536,10.3662,
1056,default,block1,mia,ai,0.05,8665,demonstrate,17,demonstrate,C,[],20,Yes,N/A,Male,English,Chrome,Windows,864,1536,10.3662,
1056,default,block1,ballet,ai,0.99,5253,MC,18,MC,MC,[],20,Yes,N/A,Male,English,Chrome,Windows,864,1536,10.3662,
1056,default,block1,grace,ai,0.03,6638,know,19,know,C,[],20,Yes,N/A,Male,English,Chrome,Windows,864,1536,10.3662,
1056,default,block1,josh,ai,0.02,17628,inform,20,inform,C,[],20,Yes,N/A,Male,English,Chrome,Windows,864,1536,10.3662,
1056,default,block1,isabella,ai,0.04,5674,see,21,see,C,[],20,Yes,N/A,Male,English,Chrome,Windows,864,1536,10.3662,
1056,default,block1,olivia,ai,0.36,17973,pretend,22,pretend,C,[],20,Yes,N/A,Male,English,Chrome,Windows,864,1536,10.3662,
1056,default,block1,muffins,ai,0.95,13607,MC,23,MC,MC,[],20,Yes,N/A,Male,English,Chrome,Windows,864,1536,10.3662,
1056,default,block1,garage,ai,0.96,7672,MC,24,MC,MC,[],20,Yes,N/A,Male,English,Chrome,Windows,864,1536,10.3662,
1056,default,block1,emily,ai,0.03,4573,confess,25,confess,C,[],20,Yes,N/A,Male,English,Chrome,Windows,864,1536,10.3662,
1056,default,block1,josie,ai,0.02,4469,establish,26,establish,C,[],20,Yes,N/A,Male,English,Chrome,Windows,864,1536,10.3662,
1056,default,block1,zoe,ai,0.02,4449,prove,27,prove,C,[],20,Yes,N/A,Male,English,Chrome,Windows,864,1536,10.3662,
1056,default,block1,sophia,ai,0.02,4702,reveal,28,reveal,C,[],20,Yes,N/A,Male,English,Chrome,Windows,864,1536,10.3662,
1056,default,block1,frank,ai,0.03,8215,think,29,think,C,[],20,Yes,N/A,Male,English,Chrome,Windows,864,1536,10.3662,
1056,default,block1,owen,ai,0.02,12563,admit,30,admit,C,[],20,Yes,N/A,Male,English,Chrome,Windows,864,1536,10.3662,
1056,default,block2,emma,projective,0.14,6970,say,32,say,C,[],20,Yes,N/A,Male,English,Chrome,Windows,864,1536,10.3662,
1056,default,block2,tony,projective,0.02,10189,be_right,33,be_right,C,[],20,Yes,N/A,Male,English,Chrome,Windows,864,1536,10.3662,
1056,default,block2,charley,projective,0.13,6299,confirm,34,confirm,C,[],20,Yes,N/A,Male,English,Chrome,Windows,864,1536,10.3662,
1056,default,block2,kids,projective,0.15,8286,MC,35,MC,MC,[],20,Yes,N/A,Male,English,Chrome,Windows,864,1536,10.3662,
1056,default,block2,owen,projective,0.97,11680,admit,36,admit,C,[],20,Yes,N/A,Male,English,Chrome,Windows,864,1536,10.3662,
1056,default,block2,sophia,projective,0.79,9247,reveal,37,reveal,C,[],20,Yes,N/A,Male,English,Chrome,Windows,864,1536,10.3662,
1056,default,block2,zoe,projective,0.21,9945,prove,38,prove,C,[],20,Yes,N/A,Male,English,Chrome,Windows,864,1536,10.3662,
1056,default,block2,muffins,projective,0.09,11791,MC,39,MC,MC,[],20,Yes,N/A,Male,English,Chrome,Windows,864,1536,10.3662,
1056,default,block2,grace,projective,0.97,6423,know,40,know,C,[],20,Yes,N/A,Male,English,Chrome,Windows,864,1536,10.3662,
1056,default,block2,isabella,projective,0.95,5280,see,41,see,C,[],20,Yes,N/A,Male,English,Chrome,Windows,864,1536,10.3662,
1056,default,block2,ballet,projective,0,7831,MC,42,MC,MC,[],20,Yes,N/A,Male,English,Chrome,Windows,864,1536,10.3662,
1056,default,block2,josie,projective,0.58,15890,establish,43,establish,C,[],20,Yes,N/A,Male,English,Chrome,Windows,864,1536,10.3662,
1056,default,block2,jayden,projective,0.96,10171,be_annoyed,44,be_annoyed,C,[],20,Yes,N/A,Male,English,Chrome,Windows,864,1536,10.3662,
1056,default,block2,pizza,projective,0.02,11562,MC,45,MC,MC,[],20,Yes,N/A,Male,English,Chrome,Windows,864,1536,10.3662,
1056,default,block2,garage,projective,0.04,5395,MC,46,MC,MC,[],20,Yes,N/A,Male,English,Chrome,Windows,864,1536,10.3662,
1056,default,block2,emily,projective,0.48,13902,confess,47,confess,C,[],20,Yes,N/A,Male,English,Chrome,Windows,864,1536,10.3662,
1056,default,block2,hat,projective,0.06,25388,MC,48,MC,MC,[],20,Yes,N/A,Male,English,Chrome,Windows,864,1536,10.3662,
1056,default,block2,mary,projective,0.89,22342,acknowledge,49,acknowledge,C,[],20,Yes,N/A,Male,English,Chrome,Windows,864,1536,10.3662,
1056,default,block2,frank,projective,0.1,13065,think,50,think,C,[],20,Yes,N/A,Male,English,Chrome,Windows,864,1536,10.3662,
1056,default,block2,jackson,projective,0.1,6658,suggest,51,suggest,C,[],20,Yes,N/A,Male,English,Chrome,Windows,864,1536,10.3662,
1056,default,block2,julian,projective,0.7,8412,discover,52,discover,C,[],20,Yes,N/A,Male,English,Chrome,Windows,864,1536,10.3662,
1056,default,block2,josh,projective,0.96,30593,inform,53,inform,C,[],20,Yes,N/A,Male,English,Chrome,Windows,864,1536,10.3662,
1056,default,block2,olivia,projective,0.08,8018,pretend,54,pretend,C,[],20,Yes,N/A,Male,English,Chrome,Windows,864,1536,10.3662,
1056,default,block2,jon,projective,0.63,8304,hear,55,hear,C,[],20,Yes,N/A,Male,English,Chrome,Windows,864,1536,10.3662,
1056,default,block2,danny,projective,0.06,7260,announce,56,announce,C,[],20,Yes,N/A,Male,English,Chrome,Windows,864,1536,10.3662,
1056,default,block2,mia,projective,0.22,7567,demonstrate,57,demonstrate,C,[],20,Yes,N/A,Male,English,Chrome,Windows,864,1536,10.3662,
