workerid,proliferate.condition.x,block,content,question_type,response,rt,short_trigger,slide_number_in_experiment,trigger,trigger_class,error.x,proliferate.condition.y,age,american,comments,gender,error.y,trial
1129,default,block1,jayden,projective,0.07,24820,confirm,5,confirm,C,NA,default,20,Yes,Enjoyed this!,Female,NA,1
1129,default,block1,garage,projective,0.97,8448,MC,6,MC,MC,NA,default,20,Yes,Enjoyed this!,Female,NA,2
1129,default,block1,josie,projective,0.06,8721,establish,7,establish,C,NA,default,20,Yes,Enjoyed this!,Female,NA,3
1129,default,block1,mia,projective,0.03,12005,pretend,8,pretend,C,NA,default,20,Yes,Enjoyed this!,Female,NA,4
1129,default,block1,grace,projective,0.04,7660,inform,9,inform,C,NA,default,20,Yes,Enjoyed this!,Female,NA,5
1129,default,block1,emily,projective,0.07,7531,reveal,10,reveal,C,NA,default,20,Yes,Enjoyed this!,Female,NA,6
1129,default,block1,julian,projective,0.07,9228,suggest,11,suggest,C,NA,default,20,Yes,Enjoyed this!,Female,NA,7
1129,default,block1,danny,projective,0.05,10062,be_right,12,be_right,C,NA,default,20,Yes,Enjoyed this!,Female,NA,8
1129,default,block1,olivia,projective,0.01,6293,know,13,know,C,NA,default,20,Yes,Enjoyed this!,Female,NA,9
1129,default,block1,isabella,projective,0.02,8922,confess,14,confess,C,NA,default,20,Yes,Enjoyed this!,Female,NA,10
1129,default,block1,ballet,projective,0.96,6384,MC,15,MC,MC,NA,default,20,Yes,Enjoyed this!,Female,NA,11
1129,default,block1,charley,projective,0.06,4496,announce,16,announce,C,NA,default,20,Yes,Enjoyed this!,Female,NA,12
1129,default,block1,muffins,projective,0.95,4917,MC,17,MC,MC,NA,default,20,Yes,Enjoyed this!,Female,NA,13
1129,default,block1,owen,projective,0.04,7434,think,18,think,C,NA,default,20,Yes,Enjoyed this!,Female,NA,14
1129,default,block1,jackson,projective,0.01,4728,be_annoyed,19,be_annoyed,C,NA,default,20,Yes,Enjoyed this!,Female,NA,15
1129,default,block1,emma,projective,0.07,5439,hear,20,hear,C,NA,default,20,Yes,Enjoyed this!,Female,NA,16
1129,default,block1,sophia,projective,0.04,7195,prove,21,prove,C,NA,default,20,Yes,Enjoyed this!,Female,NA,17
1129,default,block1,kids,projective,0.95,18316,MC,22,MC,MC,NA,default,20,Yes,Enjoyed this!,Female,NA,18
1129,default,block1,zoe,projective,0.03,6611,say,23,say,C,NA,default,20,Yes,Enjoyed this!,Female,NA,19
1129,default,block1,hat,projective,1,6049,MC,24,MC,MC,NA,default,20,Yes,Enjoyed this!,Female,NA,20
1129,default,block1,josh,projective,0.06,6499,admit,25,admit,C,NA,default,20,Yes,Enjoyed this!,Female,NA,21
1129,default,block1,jon,projective,0.06,7589,see,26,see,C,NA,default,20,Yes,Enjoyed this!,Female,NA,22
1129,default,block1,pizza,projective,0.96,5589,MC,27,MC,MC,NA,default,20,Yes,Enjoyed this!,Female,NA,23
1129,default,block1,mary,projective,0.03,5902,demonstrate,28,demonstrate,C,NA,default,20,Yes,Enjoyed this!,Female,NA,24
1129,default,block1,frank,projective,0.01,10551,discover,29,discover,C,NA,default,20,Yes,Enjoyed this!,Female,NA,25
1129,default,block1,tony,projective,0.05,2887,acknowledge,30,acknowledge,C,NA,default,20,Yes,Enjoyed this!,Female,NA,26
1129,default,block2,emily,ai,0.95,10248,reveal,32,reveal,C,NA,default,20,Yes,Enjoyed this!,Female,NA,27
1129,default,block2,sophia,ai,0.95,7721,prove,33,prove,C,NA,default,20,Yes,Enjoyed this!,Female,NA,28
1129,default,block2,pizza,ai,0.98,7128,MC,34,MC,MC,NA,default,20,Yes,Enjoyed this!,Female,NA,29
1129,default,block2,grace,ai,0.94,7231,inform,35,inform,C,NA,default,20,Yes,Enjoyed this!,Female,NA,30
1129,default,block2,jayden,ai,0.96,4828,confirm,36,confirm,C,NA,default,20,Yes,Enjoyed this!,Female,NA,31
1129,default,block2,jon,ai,0.0600000000000001,43076,see,37,see,C,NA,default,20,Yes,Enjoyed this!,Female,NA,32
1129,default,block2,owen,ai,0.04,7569,think,38,think,C,NA,default,20,Yes,Enjoyed this!,Female,NA,33
1129,default,block2,mary,ai,0.96,7247,demonstrate,39,demonstrate,C,NA,default,20,Yes,Enjoyed this!,Female,NA,34
1129,default,block2,isabella,ai,0.95,6956,confess,40,confess,C,NA,default,20,Yes,Enjoyed this!,Female,NA,35
1129,default,block2,ballet,ai,0.98,6008,MC,41,MC,MC,NA,default,20,Yes,Enjoyed this!,Female,NA,36
1129,default,block2,kids,ai,0.92,5107,MC,42,MC,MC,NA,default,20,Yes,Enjoyed this!,Female,NA,37
1129,default,block2,danny,ai,0.95,7858,be_right,43,be_right,C,NA,default,20,Yes,Enjoyed this!,Female,NA,38
1129,default,block2,tony,ai,0.92,5167,acknowledge,44,acknowledge,C,NA,default,20,Yes,Enjoyed this!,Female,NA,39
1129,default,block2,julian,ai,0.92,4447,suggest,45,suggest,C,NA,default,20,Yes,Enjoyed this!,Female,NA,40
1129,default,block2,jackson,ai,0.98,5108,be_annoyed,46,be_annoyed,C,NA,default,20,Yes,Enjoyed this!,Female,NA,41
1129,default,block2,josh,ai,0.9,3240,admit,47,admit,C,NA,default,20,Yes,Enjoyed this!,Female,NA,42
1129,default,block2,garage,ai,0.95,4898,MC,48,MC,MC,NA,default,20,Yes,Enjoyed this!,Female,NA,43
1129,default,block2,olivia,ai,0.93,4999,know,49,know,C,NA,default,20,Yes,Enjoyed this!,Female,NA,44
1129,default,block2,josie,ai,0.9,5478,establish,50,establish,C,NA,default,20,Yes,Enjoyed this!,Female,NA,45
1129,default,block2,mia,ai,0.92,3669,pretend,51,pretend,C,NA,default,20,Yes,Enjoyed this!,Female,NA,46
1129,default,block2,hat,ai,0.94,6268,MC,52,MC,MC,NA,default,20,Yes,Enjoyed this!,Female,NA,47
1129,default,block2,frank,ai,0.95,3039,discover,53,discover,C,NA,default,20,Yes,Enjoyed this!,Female,NA,48
1129,default,block2,emma,ai,0.91,3257,hear,54,hear,C,NA,default,20,Yes,Enjoyed this!,Female,NA,49
1129,default,block2,charley,ai,0.93,8108,announce,55,announce,C,NA,default,20,Yes,Enjoyed this!,Female,NA,50
1129,default,block2,muffins,ai,0.99,4353,MC,56,MC,MC,NA,default,20,Yes,Enjoyed this!,Female,NA,51
1129,default,block2,zoe,ai,0.91,4247,say,57,say,C,NA,default,20,Yes,Enjoyed this!,Female,NA,52
1130,default,block1,hat,ai,0.02,22691,MC,5,MC,MC,NA,default,22,Yes,NA,Female,NA,1
1130,default,block1,danny,ai,0.17,22846,be_right,6,be_right,C,NA,default,22,Yes,NA,Female,NA,2
1130,default,block1,josh,ai,0.01,19014,acknowledge,7,acknowledge,C,NA,default,22,Yes,NA,Female,NA,3
1130,default,block1,tony,ai,0.21,16587,establish,8,establish,C,NA,default,22,Yes,NA,Female,NA,4
1130,default,block1,olivia,ai,0.09,15016,admit,9,admit,C,NA,default,22,Yes,NA,Female,NA,5
1130,default,block1,ballet,ai,0.28,11720,MC,10,MC,MC,NA,default,22,Yes,NA,Female,NA,6
1130,default,block1,emma,ai,0.46,17446,hear,11,hear,C,NA,default,22,Yes,NA,Female,NA,7
1130,default,block1,kids,ai,0.85,10999,MC,12,MC,MC,NA,default,22,Yes,NA,Female,NA,8
1130,default,block1,pizza,ai,0.56,8639,MC,13,MC,MC,NA,default,22,Yes,NA,Female,NA,9
1130,default,block1,isabella,ai,0.55,15197,suggest,14,suggest,C,NA,default,22,Yes,NA,Female,NA,10
1130,default,block1,muffins,ai,0.73,7622,MC,15,MC,MC,NA,default,22,Yes,NA,Female,NA,11
1130,default,block1,josie,ai,0.75,16288,inform,16,inform,C,NA,default,22,Yes,NA,Female,NA,12
1130,default,block1,zoe,ai,0.51,9870,say,17,say,C,NA,default,22,Yes,NA,Female,NA,13
1130,default,block1,jayden,ai,0.21,9646,prove,18,prove,C,NA,default,22,Yes,NA,Female,NA,14
1130,default,block1,mia,ai,0.48,14521,discover,19,discover,C,NA,default,22,Yes,NA,Female,NA,15
1130,default,block1,jon,ai,0.33,24929,be_annoyed,20,be_annoyed,C,NA,default,22,Yes,NA,Female,NA,16
1130,default,block1,jackson,ai,0.35,20860,pretend,21,pretend,C,NA,default,22,Yes,NA,Female,NA,17
1130,default,block1,garage,ai,0.02,12021,MC,22,MC,MC,NA,default,22,Yes,NA,Female,NA,18
1130,default,block1,sophia,ai,0.49,14854,think,23,think,C,NA,default,22,Yes,NA,Female,NA,19
1130,default,block1,frank,ai,0.34,8853,confirm,24,confirm,C,NA,default,22,Yes,NA,Female,NA,20
1130,default,block1,owen,ai,0.62,31706,demonstrate,25,demonstrate,C,NA,default,22,Yes,NA,Female,NA,21
1130,default,block1,julian,ai,0.5,19221,see,26,see,C,NA,default,22,Yes,NA,Female,NA,22
1130,default,block1,emily,ai,0.28,10005,know,27,know,C,NA,default,22,Yes,NA,Female,NA,23
1130,default,block1,mary,ai,0.07,6588,announce,28,announce,C,NA,default,22,Yes,NA,Female,NA,24
1130,default,block1,grace,ai,0.18,18814,confess,29,confess,C,NA,default,22,Yes,NA,Female,NA,25
1130,default,block1,charley,ai,0.7,12327,reveal,30,reveal,C,NA,default,22,Yes,NA,Female,NA,26
1130,default,block2,charley,projective,0.98,12440,reveal,32,reveal,C,NA,default,22,Yes,NA,Female,NA,27
1130,default,block2,mary,projective,0.99,7810,announce,33,announce,C,NA,default,22,Yes,NA,Female,NA,28
1130,default,block2,hat,projective,0.98,6362,MC,34,MC,MC,NA,default,22,Yes,NA,Female,NA,29
1130,default,block2,kids,projective,0.96,4907,MC,35,MC,MC,NA,default,22,Yes,NA,Female,NA,30
1130,default,block2,muffins,projective,0.99,5060,MC,36,MC,MC,NA,default,22,Yes,NA,Female,NA,31
1130,default,block2,isabella,projective,0.22,12847,suggest,37,suggest,C,NA,default,22,Yes,NA,Female,NA,32
1130,default,block2,danny,projective,0.01,6724,be_right,38,be_right,C,NA,default,22,Yes,NA,Female,NA,33
1130,default,block2,tony,projective,0.88,20169,establish,39,establish,C,NA,default,22,Yes,NA,Female,NA,34
1130,default,block2,olivia,projective,0.87,5622,admit,40,admit,C,NA,default,22,Yes,NA,Female,NA,35
1130,default,block2,josh,projective,0.98,7636,acknowledge,41,acknowledge,C,NA,default,22,Yes,NA,Female,NA,36
1130,default,block2,garage,projective,0.98,4848,MC,42,MC,MC,NA,default,22,Yes,NA,Female,NA,37
1130,default,block2,owen,projective,0.88,9821,demonstrate,43,demonstrate,C,NA,default,22,Yes,NA,Female,NA,38
1130,default,block2,frank,projective,0.18,6984,confirm,44,confirm,C,NA,default,22,Yes,NA,Female,NA,39
1130,default,block2,pizza,projective,1,4784,MC,45,MC,MC,NA,default,22,Yes,NA,Female,NA,40
1130,default,block2,jon,projective,0.99,6556,be_annoyed,46,be_annoyed,C,NA,default,22,Yes,NA,Female,NA,41
1130,default,block2,grace,projective,0.99,8856,confess,47,confess,C,NA,default,22,Yes,NA,Female,NA,42
1130,default,block2,zoe,projective,0.5,5471,say,48,say,C,NA,default,22,Yes,NA,Female,NA,43
1130,default,block2,josie,projective,0.98,7373,inform,49,inform,C,NA,default,22,Yes,NA,Female,NA,44
1130,default,block2,sophia,projective,0.15,5520,think,50,think,C,NA,default,22,Yes,NA,Female,NA,45
1130,default,block2,ballet,projective,0.99,4119,MC,51,MC,MC,NA,default,22,Yes,NA,Female,NA,46
1130,default,block2,jayden,projective,0.5,9888,prove,52,prove,C,NA,default,22,Yes,NA,Female,NA,47
1130,default,block2,jackson,projective,0.01,7577,pretend,53,pretend,C,NA,default,22,Yes,NA,Female,NA,48
1130,default,block2,mia,projective,0.91,6474,discover,54,discover,C,NA,default,22,Yes,NA,Female,NA,49
1130,default,block2,emily,projective,0.99,5315,know,55,know,C,NA,default,22,Yes,NA,Female,NA,50
1130,default,block2,julian,projective,0.98,5599,see,56,see,C,NA,default,22,Yes,NA,Female,NA,51
1130,default,block2,emma,projective,0.99,5112,hear,57,hear,C,NA,default,22,Yes,NA,Female,NA,52
1131,default,block1,charley,ai,0.05,19343,discover,5,discover,C,NA,default,27,Yes,NA,Female,NA,1
1131,default,block1,mia,ai,0.03,12824,reveal,6,reveal,C,NA,default,27,Yes,NA,Female,NA,2
1131,default,block1,frank,ai,0.03,12809,pretend,7,pretend,C,NA,default,27,Yes,NA,Female,NA,3
1131,default,block1,josh,ai,0.03,15278,confess,8,confess,C,NA,default,27,Yes,NA,Female,NA,4
1131,default,block1,julian,ai,0.03,23358,think,9,think,C,NA,default,27,Yes,NA,Female,NA,5
1131,default,block1,danny,ai,0.05,14087,announce,10,announce,C,NA,default,27,Yes,NA,Female,NA,6
1131,default,block1,jackson,ai,0.01,6025,say,11,say,C,NA,default,27,Yes,NA,Female,NA,7
1131,default,block1,olivia,ai,0.03,12115,establish,12,establish,C,NA,default,27,Yes,NA,Female,NA,8
1131,default,block1,mary,ai,0.02,12677,admit,13,admit,C,NA,default,27,Yes,NA,Female,NA,9
1131,default,block1,hat,ai,0.95,15057,MC,14,MC,MC,NA,default,27,Yes,NA,Female,NA,10
1131,default,block1,tony,ai,0.03,12910,be_right,15,be_right,C,NA,default,27,Yes,NA,Female,NA,11
1131,default,block1,jayden,ai,0.04,9635,acknowledge,16,acknowledge,C,NA,default,27,Yes,NA,Female,NA,12
1131,default,block1,pizza,ai,0.98,9634,MC,17,MC,MC,NA,default,27,Yes,NA,Female,NA,13
1131,default,block1,ballet,ai,0.96,9962,MC,18,MC,MC,NA,default,27,Yes,NA,Female,NA,14
1131,default,block1,muffins,ai,0.96,7249,MC,19,MC,MC,NA,default,27,Yes,NA,Female,NA,15
1131,default,block1,garage,ai,0.95,5608,MC,20,MC,MC,NA,default,27,Yes,NA,Female,NA,16
1131,default,block1,sophia,ai,0.02,9165,be_annoyed,21,be_annoyed,C,NA,default,27,Yes,NA,Female,NA,17
1131,default,block1,isabella,ai,0.02,7368,see,22,see,C,NA,default,27,Yes,NA,Female,NA,18
1131,default,block1,josie,ai,0,19884,know,23,know,C,NA,default,27,Yes,NA,Female,NA,19
1131,default,block1,emily,ai,0.07,8722,confirm,24,confirm,C,NA,default,27,Yes,NA,Female,NA,20
1131,default,block1,owen,ai,0.08,7593,hear,25,hear,C,NA,default,27,Yes,NA,Female,NA,21
1131,default,block1,grace,ai,0.04,24456,inform,26,inform,C,NA,default,27,Yes,NA,Female,NA,22
1131,default,block1,jon,ai,0.0600000000000001,5444,prove,27,prove,C,NA,default,27,Yes,NA,Female,NA,23
1131,default,block1,zoe,ai,0.02,7269,suggest,28,suggest,C,NA,default,27,Yes,NA,Female,NA,24
1131,default,block1,emma,ai,0.01,4359,demonstrate,29,demonstrate,C,NA,default,27,Yes,NA,Female,NA,25
1131,default,block1,kids,ai,0.93,7354,MC,30,MC,MC,NA,default,27,Yes,NA,Female,NA,26
1131,default,block2,kids,projective,0.97,7844,MC,32,MC,MC,NA,default,27,Yes,NA,Female,NA,27
1131,default,block2,emily,projective,0.06,6641,confirm,33,confirm,C,NA,default,27,Yes,NA,Female,NA,28
1131,default,block2,pizza,projective,0.98,3831,MC,34,MC,MC,NA,default,27,Yes,NA,Female,NA,29
1131,default,block2,charley,projective,0.97,13314,discover,35,discover,C,NA,default,27,Yes,NA,Female,NA,30
1131,default,block2,zoe,projective,0.06,5373,suggest,36,suggest,C,NA,default,27,Yes,NA,Female,NA,31
1131,default,block2,mary,projective,0.09,4413,admit,37,admit,C,NA,default,27,Yes,NA,Female,NA,32
1131,default,block2,isabella,projective,0.96,4800,see,38,see,C,NA,default,27,Yes,NA,Female,NA,33
1131,default,block2,jon,projective,0,7103,prove,39,prove,C,NA,default,27,Yes,NA,Female,NA,34
1131,default,block2,ballet,projective,0.98,5822,MC,40,MC,MC,NA,default,27,Yes,NA,Female,NA,35
1131,default,block2,owen,projective,0.97,15247,hear,41,hear,C,NA,default,27,Yes,NA,Female,NA,36
1131,default,block2,josh,projective,0.97,11399,confess,42,confess,C,NA,default,27,Yes,NA,Female,NA,37
1131,default,block2,tony,projective,0.06,5458,be_right,43,be_right,C,NA,default,27,Yes,NA,Female,NA,38
1131,default,block2,muffins,projective,0.96,3625,MC,44,MC,MC,NA,default,27,Yes,NA,Female,NA,39
1131,default,block2,danny,projective,0.02,4597,announce,45,announce,C,NA,default,27,Yes,NA,Female,NA,40
1131,default,block2,emma,projective,0.05,5641,demonstrate,46,demonstrate,C,NA,default,27,Yes,NA,Female,NA,41
1131,default,block2,olivia,projective,0.01,5504,establish,47,establish,C,NA,default,27,Yes,NA,Female,NA,42
1131,default,block2,grace,projective,0.02,3967,inform,48,inform,C,NA,default,27,Yes,NA,Female,NA,43
1131,default,block2,garage,projective,0.98,3498,MC,49,MC,MC,NA,default,27,Yes,NA,Female,NA,44
1131,default,block2,hat,projective,0.99,3510,MC,50,MC,MC,NA,default,27,Yes,NA,Female,NA,45
1131,default,block2,jayden,projective,0.01,2895,acknowledge,51,acknowledge,C,NA,default,27,Yes,NA,Female,NA,46
1131,default,block2,jackson,projective,0.03,7032,say,52,say,C,NA,default,27,Yes,NA,Female,NA,47
1131,default,block2,sophia,projective,0.02,3287,be_annoyed,53,be_annoyed,C,NA,default,27,Yes,NA,Female,NA,48
1131,default,block2,mia,projective,0.03,3483,reveal,54,reveal,C,NA,default,27,Yes,NA,Female,NA,49
1131,default,block2,josie,projective,0.02,3084,know,55,know,C,NA,default,27,Yes,NA,Female,NA,50
1131,default,block2,frank,projective,0.01,7282,pretend,56,pretend,C,NA,default,27,Yes,NA,Female,NA,51
1131,default,block2,julian,projective,0.02,3668,think,57,think,C,NA,default,27,Yes,NA,Female,NA,52
1132,default,block1,josie,projective,0.83,11150,discover,5,discover,C,NA,default,22,Yes,Some of the wordings of the sentences didn't sound natural, which I think impacted some of my results (especially during the "does this sound good?" questions. I did think the formatting was clear, though.,Female,NA,1
1132,default,block1,frank,projective,0.33,10732,suggest,6,suggest,C,NA,default,22,Yes,Some of the wordings of the sentences didn't sound natural, which I think impacted some of my results (especially during the "does this sound good?" questions. I did think the formatting was clear, though.,Female,NA,2
1132,default,block1,mary,projective,0.94,10922,admit,7,admit,C,NA,default,22,Yes,Some of the wordings of the sentences didn't sound natural, which I think impacted some of my results (especially during the "does this sound good?" questions. I did think the formatting was clear, though.,Female,NA,3
1132,default,block1,garage,projective,1,5773,MC,8,MC,MC,NA,default,22,Yes,Some of the wordings of the sentences didn't sound natural, which I think impacted some of my results (especially during the "does this sound good?" questions. I did think the formatting was clear, though.,Female,NA,4
1132,default,block1,emily,projective,0.66,6211,reveal,9,reveal,C,NA,default,22,Yes,Some of the wordings of the sentences didn't sound natural, which I think impacted some of my results (especially during the "does this sound good?" questions. I did think the formatting was clear, though.,Female,NA,5
1132,default,block1,kids,projective,0.95,5125,MC,10,MC,MC,NA,default,22,Yes,Some of the wordings of the sentences didn't sound natural, which I think impacted some of my results (especially during the "does this sound good?" questions. I did think the formatting was clear, though.,Female,NA,6
1132,default,block1,mia,projective,0.73,6947,be_annoyed,11,be_annoyed,C,NA,default,22,Yes,Some of the wordings of the sentences didn't sound natural, which I think impacted some of my results (especially during the "does this sound good?" questions. I did think the formatting was clear, though.,Female,NA,7
1132,default,block1,charley,projective,0.21,6277,think,12,think,C,NA,default,22,Yes,Some of the wordings of the sentences didn't sound natural, which I think impacted some of my results (especially during the "does this sound good?" questions. I did think the formatting was clear, though.,Female,NA,8
1132,default,block1,sophia,projective,0.08,4059,be_right,13,be_right,C,NA,default,22,Yes,Some of the wordings of the sentences didn't sound natural, which I think impacted some of my results (especially during the "does this sound good?" questions. I did think the formatting was clear, though.,Female,NA,9
1132,default,block1,hat,projective,1,6932,MC,14,MC,MC,NA,default,22,Yes,Some of the wordings of the sentences didn't sound natural, which I think impacted some of my results (especially during the "does this sound good?" questions. I did think the formatting was clear, though.,Female,NA,10
1132,default,block1,muffins,projective,1,4260,MC,15,MC,MC,NA,default,22,Yes,Some of the wordings of the sentences didn't sound natural, which I think impacted some of my results (especially during the "does this sound good?" questions. I did think the formatting was clear, though.,Female,NA,11
1132,default,block1,owen,projective,0.65,10190,announce,16,announce,C,NA,default,22,Yes,Some of the wordings of the sentences didn't sound natural, which I think impacted some of my results (especially during the "does this sound good?" questions. I did think the formatting was clear, though.,Female,NA,12
1132,default,block1,olivia,projective,0.5,10621,inform,17,inform,C,NA,default,22,Yes,Some of the wordings of the sentences didn't sound natural, which I think impacted some of my results (especially during the "does this sound good?" questions. I did think the formatting was clear, though.,Female,NA,13
1132,default,block1,grace,projective,1,7567,say,18,say,C,NA,default,22,Yes,Some of the wordings of the sentences didn't sound natural, which I think impacted some of my results (especially during the "does this sound good?" questions. I did think the formatting was clear, though.,Female,NA,14
1132,default,block1,emma,projective,0.77,6288,establish,19,establish,C,NA,default,22,Yes,Some of the wordings of the sentences didn't sound natural, which I think impacted some of my results (especially during the "does this sound good?" questions. I did think the formatting was clear, though.,Female,NA,15
1132,default,block1,julian,projective,0.19,5191,prove,20,prove,C,NA,default,22,Yes,Some of the wordings of the sentences didn't sound natural, which I think impacted some of my results (especially during the "does this sound good?" questions. I did think the formatting was clear, though.,Female,NA,16
1132,default,block1,zoe,projective,0.36,8818,hear,21,hear,C,NA,default,22,Yes,Some of the wordings of the sentences didn't sound natural, which I think impacted some of my results (especially during the "does this sound good?" questions. I did think the formatting was clear, though.,Female,NA,17
1132,default,block1,danny,projective,0.66,10467,know,22,know,C,NA,default,22,Yes,Some of the wordings of the sentences didn't sound natural, which I think impacted some of my results (especially during the "does this sound good?" questions. I did think the formatting was clear, though.,Female,NA,18
1132,default,block1,isabella,projective,0.94,5792,acknowledge,23,acknowledge,C,NA,default,22,Yes,Some of the wordings of the sentences didn't sound natural, which I think impacted some of my results (especially during the "does this sound good?" questions. I did think the formatting was clear, though.,Female,NA,19
1132,default,block1,jon,projective,0.42,19319,confirm,24,confirm,C,NA,default,22,Yes,Some of the wordings of the sentences didn't sound natural, which I think impacted some of my results (especially during the "does this sound good?" questions. I did think the formatting was clear, though.,Female,NA,20
1132,default,block1,jackson,projective,0.79,5226,see,25,see,C,NA,default,22,Yes,Some of the wordings of the sentences didn't sound natural, which I think impacted some of my results (especially during the "does this sound good?" questions. I did think the formatting was clear, though.,Female,NA,21
1132,default,block1,josh,projective,0.95,4503,confess,26,confess,C,NA,default,22,Yes,Some of the wordings of the sentences didn't sound natural, which I think impacted some of my results (especially during the "does this sound good?" questions. I did think the formatting was clear, though.,Female,NA,22
1132,default,block1,ballet,projective,1,4891,MC,27,MC,MC,NA,default,22,Yes,Some of the wordings of the sentences didn't sound natural, which I think impacted some of my results (especially during the "does this sound good?" questions. I did think the formatting was clear, though.,Female,NA,23
1132,default,block1,tony,projective,0.19,5487,pretend,28,pretend,C,NA,default,22,Yes,Some of the wordings of the sentences didn't sound natural, which I think impacted some of my results (especially during the "does this sound good?" questions. I did think the formatting was clear, though.,Female,NA,24
1132,default,block1,pizza,projective,1,4621,MC,29,MC,MC,NA,default,22,Yes,Some of the wordings of the sentences didn't sound natural, which I think impacted some of my results (especially during the "does this sound good?" questions. I did think the formatting was clear, though.,Female,NA,25
1132,default,block1,jayden,projective,0.82,5813,demonstrate,30,demonstrate,C,NA,default,22,Yes,Some of the wordings of the sentences didn't sound natural, which I think impacted some of my results (especially during the "does this sound good?" questions. I did think the formatting was clear, though.,Female,NA,26
1132,default,block2,julian,ai,0.41,9176,prove,32,prove,C,NA,default,22,Yes,Some of the wordings of the sentences didn't sound natural, which I think impacted some of my results (especially during the "does this sound good?" questions. I did think the formatting was clear, though.,Female,NA,27
1132,default,block2,charley,ai,0.22,13210,think,33,think,C,NA,default,22,Yes,Some of the wordings of the sentences didn't sound natural, which I think impacted some of my results (especially during the "does this sound good?" questions. I did think the formatting was clear, though.,Female,NA,28
1132,default,block2,frank,ai,0.11,8000,suggest,34,suggest,C,NA,default,22,Yes,Some of the wordings of the sentences didn't sound natural, which I think impacted some of my results (especially during the "does this sound good?" questions. I did think the formatting was clear, though.,Female,NA,29
1132,default,block2,danny,ai,0.65,24921,know,35,know,C,NA,default,22,Yes,Some of the wordings of the sentences didn't sound natural, which I think impacted some of my results (especially during the "does this sound good?" questions. I did think the formatting was clear, though.,Female,NA,30
1132,default,block2,tony,ai,0.11,6189,pretend,36,pretend,C,NA,default,22,Yes,Some of the wordings of the sentences didn't sound natural, which I think impacted some of my results (especially during the "does this sound good?" questions. I did think the formatting was clear, though.,Female,NA,31
1132,default,block2,pizza,ai,0.65,6062,MC,37,MC,MC,NA,default,22,Yes,Some of the wordings of the sentences didn't sound natural, which I think impacted some of my results (especially during the "does this sound good?" questions. I did think the formatting was clear, though.,Female,NA,32
1132,default,block2,emily,ai,0.22,4095,reveal,38,reveal,C,NA,default,22,Yes,Some of the wordings of the sentences didn't sound natural, which I think impacted some of my results (especially during the "does this sound good?" questions. I did think the formatting was clear, though.,Female,NA,33
1132,default,block2,jackson,ai,0.21,7447,see,39,see,C,NA,default,22,Yes,Some of the wordings of the sentences didn't sound natural, which I think impacted some of my results (especially during the "does this sound good?" questions. I did think the formatting was clear, though.,Female,NA,34
1132,default,block2,olivia,ai,0.14,6400,inform,40,inform,C,NA,default,22,Yes,Some of the wordings of the sentences didn't sound natural, which I think impacted some of my results (especially during the "does this sound good?" questions. I did think the formatting was clear, though.,Female,NA,35
1132,default,block2,ballet,ai,0.86,7905,MC,41,MC,MC,NA,default,22,Yes,Some of the wordings of the sentences didn't sound natural, which I think impacted some of my results (especially during the "does this sound good?" questions. I did think the formatting was clear, though.,Female,NA,36
1132,default,block2,muffins,ai,0.83,3011,MC,42,MC,MC,NA,default,22,Yes,Some of the wordings of the sentences didn't sound natural, which I think impacted some of my results (especially during the "does this sound good?" questions. I did think the formatting was clear, though.,Female,NA,37
1132,default,block2,emma,ai,0.17,6401,establish,43,establish,C,NA,default,22,Yes,Some of the wordings of the sentences didn't sound natural, which I think impacted some of my results (especially during the "does this sound good?" questions. I did think the formatting was clear, though.,Female,NA,38
1132,default,block2,mary,ai,0.3,7161,admit,44,admit,C,NA,default,22,Yes,Some of the wordings of the sentences didn't sound natural, which I think impacted some of my results (especially during the "does this sound good?" questions. I did think the formatting was clear, though.,Female,NA,39
1132,default,block2,grace,ai,0.31,7241,say,45,say,C,NA,default,22,Yes,Some of the wordings of the sentences didn't sound natural, which I think impacted some of my results (especially during the "does this sound good?" questions. I did think the formatting was clear, though.,Female,NA,40
1132,default,block2,josie,ai,0.17,4758,discover,46,discover,C,NA,default,22,Yes,Some of the wordings of the sentences didn't sound natural, which I think impacted some of my results (especially during the "does this sound good?" questions. I did think the formatting was clear, though.,Female,NA,41
1132,default,block2,zoe,ai,0.24,6889,hear,47,hear,C,NA,default,22,Yes,Some of the wordings of the sentences didn't sound natural, which I think impacted some of my results (especially during the "does this sound good?" questions. I did think the formatting was clear, though.,Female,NA,42
1132,default,block2,mia,ai,0.32,6710,be_annoyed,48,be_annoyed,C,NA,default,22,Yes,Some of the wordings of the sentences didn't sound natural, which I think impacted some of my results (especially during the "does this sound good?" questions. I did think the formatting was clear, though.,Female,NA,43
1132,default,block2,jayden,ai,0.38,8181,demonstrate,49,demonstrate,C,NA,default,22,Yes,Some of the wordings of the sentences didn't sound natural, which I think impacted some of my results (especially during the "does this sound good?" questions. I did think the formatting was clear, though.,Female,NA,44
1132,default,block2,jon,ai,0.41,6883,confirm,50,confirm,C,NA,default,22,Yes,Some of the wordings of the sentences didn't sound natural, which I think impacted some of my results (especially during the "does this sound good?" questions. I did think the formatting was clear, though.,Female,NA,45
1132,default,block2,kids,ai,0.83,4113,MC,51,MC,MC,NA,default,22,Yes,Some of the wordings of the sentences didn't sound natural, which I think impacted some of my results (especially during the "does this sound good?" questions. I did think the formatting was clear, though.,Female,NA,46
1132,default,block2,josh,ai,0.34,7576,confess,52,confess,C,NA,default,22,Yes,Some of the wordings of the sentences didn't sound natural, which I think impacted some of my results (especially during the "does this sound good?" questions. I did think the formatting was clear, though.,Female,NA,47
1132,default,block2,hat,ai,0.38,3403,MC,53,MC,MC,NA,default,22,Yes,Some of the wordings of the sentences didn't sound natural, which I think impacted some of my results (especially during the "does this sound good?" questions. I did think the formatting was clear, though.,Female,NA,48
1132,default,block2,owen,ai,0.41,8404,announce,54,announce,C,NA,default,22,Yes,Some of the wordings of the sentences didn't sound natural, which I think impacted some of my results (especially during the "does this sound good?" questions. I did think the formatting was clear, though.,Female,NA,49
1132,default,block2,sophia,ai,0.8,7330,be_right,55,be_right,C,NA,default,22,Yes,Some of the wordings of the sentences didn't sound natural, which I think impacted some of my results (especially during the "does this sound good?" questions. I did think the formatting was clear, though.,Female,NA,50
1132,default,block2,garage,ai,0.14,6139,MC,56,MC,MC,NA,default,22,Yes,Some of the wordings of the sentences didn't sound natural, which I think impacted some of my results (especially during the "does this sound good?" questions. I did think the formatting was clear, though.,Female,NA,51
1132,default,block2,isabella,ai,0.21,8327,acknowledge,57,acknowledge,C,NA,default,22,Yes,Some of the wordings of the sentences didn't sound natural, which I think impacted some of my results (especially during the "does this sound good?" questions. I did think the formatting was clear, though.,Female,NA,52
1134,default,block1,julian,projective,0.3,15413,suggest,5,suggest,C,NA,default,21,Yes,NA,Female,NA,1
1134,default,block1,emma,projective,0.79,16832,inform,6,inform,C,NA,default,21,Yes,NA,Female,NA,2
1134,default,block1,kids,projective,0.98,9092,MC,7,MC,MC,NA,default,21,Yes,NA,Female,NA,3
1134,default,block1,sophia,projective,0.99,7776,reveal,8,reveal,C,NA,default,21,Yes,NA,Female,NA,4
1134,default,block1,olivia,projective,0.76,6444,acknowledge,9,acknowledge,C,NA,default,21,Yes,NA,Female,NA,5
1134,default,block1,danny,projective,0.98,28608,confess,10,confess,C,NA,default,21,Yes,NA,Female,NA,6
1134,default,block1,tony,projective,0.83,6669,admit,11,admit,C,NA,default,21,Yes,NA,Female,NA,7
1134,default,block1,grace,projective,0.33,6818,say,12,say,C,NA,default,21,Yes,NA,Female,NA,8
1134,default,block1,mia,projective,0.37,28847,establish,13,establish,C,NA,default,21,Yes,NA,Female,NA,9
1134,default,block1,garage,projective,0.88,5265,MC,14,MC,MC,NA,default,21,Yes,NA,Female,NA,10
1134,default,block1,muffins,projective,0.96,4396,MC,15,MC,MC,NA,default,21,Yes,NA,Female,NA,11
1134,default,block1,josh,projective,0.2,7010,confirm,16,confirm,C,NA,default,21,Yes,NA,Female,NA,12
1134,default,block1,emily,projective,0.39,5755,demonstrate,17,demonstrate,C,NA,default,21,Yes,NA,Female,NA,13
1134,default,block1,jayden,projective,0.89,7158,discover,18,discover,C,NA,default,21,Yes,NA,Female,NA,14
1134,default,block1,frank,projective,0.49,6882,announce,19,announce,C,NA,default,21,Yes,NA,Female,NA,15
1134,default,block1,charley,projective,0.83,6766,hear,20,hear,C,NA,default,21,Yes,NA,Female,NA,16
1134,default,block1,ballet,projective,0.9,5460,MC,21,MC,MC,NA,default,21,Yes,NA,Female,NA,17
1134,default,block1,jackson,projective,0.36,5880,prove,22,prove,C,NA,default,21,Yes,NA,Female,NA,18
1134,default,block1,mary,projective,0.85,5281,see,23,see,C,NA,default,21,Yes,NA,Female,NA,19
1134,default,block1,zoe,projective,0.58,10732,know,24,know,C,NA,default,21,Yes,NA,Female,NA,20
1134,default,block1,pizza,projective,0.93,32254,MC,25,MC,MC,NA,default,21,Yes,NA,Female,NA,21
1134,default,block1,owen,projective,0.3,6800,think,26,think,C,NA,default,21,Yes,NA,Female,NA,22
1134,default,block1,josie,projective,0.9,12754,be_annoyed,27,be_annoyed,C,NA,default,21,Yes,NA,Female,NA,23
1134,default,block1,jon,projective,0.13,5577,pretend,28,pretend,C,NA,default,21,Yes,NA,Female,NA,24
1134,default,block1,hat,projective,0.97,5165,MC,29,MC,MC,NA,default,21,Yes,NA,Female,NA,25
1134,default,block1,isabella,projective,0.04,5965,be_right,30,be_right,C,NA,default,21,Yes,NA,Female,NA,26
1134,default,block2,jackson,ai,0.35,16647,prove,32,prove,C,NA,default,21,Yes,NA,Female,NA,27
1134,default,block2,pizza,ai,0.94,10582,MC,33,MC,MC,NA,default,21,Yes,NA,Female,NA,28
1134,default,block2,grace,ai,0.4,78849,say,34,say,C,NA,default,21,Yes,NA,Female,NA,29
1134,default,block2,isabella,ai,0.39,10749,be_right,35,be_right,C,NA,default,21,Yes,NA,Female,NA,30
1134,default,block2,zoe,ai,0.81,6086,know,36,know,C,NA,default,21,Yes,NA,Female,NA,31
1134,default,block2,mia,ai,0.41,5432,establish,37,establish,C,NA,default,21,Yes,NA,Female,NA,32
1134,default,block2,kids,ai,0.91,5718,MC,38,MC,MC,NA,default,21,Yes,NA,Female,NA,33
1134,default,block2,olivia,ai,0.29,5886,acknowledge,39,acknowledge,C,NA,default,21,Yes,NA,Female,NA,34
1134,default,block2,emma,ai,0.42,9843,inform,40,inform,C,NA,default,21,Yes,NA,Female,NA,35
1134,default,block2,danny,ai,0.41,56858,confess,41,confess,C,NA,default,21,Yes,NA,Female,NA,36
1134,default,block2,tony,ai,0.64,53062,admit,42,admit,C,NA,default,21,Yes,NA,Female,NA,37
1134,default,block2,frank,ai,0.74,17402,announce,43,announce,C,NA,default,21,Yes,NA,Female,NA,38
1134,default,block2,garage,ai,0.0600000000000001,6415,MC,44,MC,MC,NA,default,21,Yes,NA,Female,NA,39
1134,default,block2,jon,ai,0.43,7245,pretend,45,pretend,C,NA,default,21,Yes,NA,Female,NA,40
1134,default,block2,emily,ai,0.67,32232,demonstrate,46,demonstrate,C,NA,default,21,Yes,NA,Female,NA,41
1134,default,block2,jayden,ai,0.34,7980,discover,47,discover,C,NA,default,21,Yes,NA,Female,NA,42
1134,default,block2,sophia,ai,0.37,6302,reveal,48,reveal,C,NA,default,21,Yes,NA,Female,NA,43
1134,default,block2,julian,ai,0.47,6204,suggest,49,suggest,C,NA,default,21,Yes,NA,Female,NA,44
1134,default,block2,josh,ai,0.63,23288,confirm,50,confirm,C,NA,default,21,Yes,NA,Female,NA,45
1134,default,block2,hat,ai,0.71,30558,MC,51,MC,MC,NA,default,21,Yes,NA,Female,NA,46
1134,default,block2,owen,ai,0.61,18202,think,52,think,C,NA,default,21,Yes,NA,Female,NA,47
1134,default,block2,mary,ai,0.4,4890,see,53,see,C,NA,default,21,Yes,NA,Female,NA,48
1134,default,block2,josie,ai,0.83,12314,be_annoyed,54,be_annoyed,C,NA,default,21,Yes,NA,Female,NA,49
1134,default,block2,charley,ai,0.7,4484,hear,55,hear,C,NA,default,21,Yes,NA,Female,NA,50
1134,default,block2,ballet,ai,0.35,6054,MC,56,MC,MC,NA,default,21,Yes,NA,Female,NA,51
1134,default,block2,muffins,ai,0.27,6356,MC,57,MC,MC,NA,default,21,Yes,NA,Female,NA,52
1135,default,block1,owen,projective,0.96,18954,be_annoyed,5,be_annoyed,C,NA,default,20,Yes,NA,Female,NA,1
1135,default,block1,mia,projective,0.15,16889,prove,6,prove,C,NA,default,20,Yes,NA,Female,NA,2
1135,default,block1,frank,projective,0.84,12747,know,7,know,C,NA,default,20,Yes,NA,Female,NA,3
1135,default,block1,mary,projective,0.13,13389,reveal,8,reveal,C,NA,default,20,Yes,NA,Female,NA,4
1135,default,block1,jayden,projective,0.02,16036,think,9,think,C,NA,default,20,Yes,NA,Female,NA,5
1135,default,block1,josie,projective,0,16551,announce,10,announce,C,NA,default,20,Yes,NA,Female,NA,6
1135,default,block1,sophia,projective,0.28,16204,demonstrate,11,demonstrate,C,NA,default,20,Yes,NA,Female,NA,7
1135,default,block1,grace,projective,0.79,17516,confess,12,confess,C,NA,default,20,Yes,NA,Female,NA,8
1135,default,block1,julian,projective,0.5,10850,admit,13,admit,C,NA,default,20,Yes,NA,Female,NA,9
1135,default,block1,tony,projective,0.74,11409,establish,14,establish,C,NA,default,20,Yes,NA,Female,NA,10
1135,default,block1,hat,projective,1,10450,MC,15,MC,MC,NA,default,20,Yes,NA,Female,NA,11
1135,default,block1,danny,projective,0.14,21765,inform,16,inform,C,NA,default,20,Yes,NA,Female,NA,12
1135,default,block1,ballet,projective,1,12009,MC,17,MC,MC,NA,default,20,Yes,NA,Female,NA,13
1135,default,block1,garage,projective,0.99,9852,MC,18,MC,MC,NA,default,20,Yes,NA,Female,NA,14
1135,default,block1,isabella,projective,0.01,114681,hear,19,hear,C,NA,default,20,Yes,NA,Female,NA,15
1135,default,block1,jackson,projective,0.09,8699,suggest,20,suggest,C,NA,default,20,Yes,NA,Female,NA,16
1135,default,block1,pizza,projective,1,11328,MC,21,MC,MC,NA,default,20,Yes,NA,Female,NA,17
1135,default,block1,jon,projective,0.29,9916,discover,22,discover,C,NA,default,20,Yes,NA,Female,NA,18
1135,default,block1,charley,projective,0.28,13080,be_right,23,be_right,C,NA,default,20,Yes,NA,Female,NA,19
1135,default,block1,muffins,projective,1,8784,MC,24,MC,MC,NA,default,20,Yes,NA,Female,NA,20
1135,default,block1,emily,projective,0.31,12907,say,25,say,C,NA,default,20,Yes,NA,Female,NA,21
1135,default,block1,olivia,projective,0,15846,pretend,26,pretend,C,NA,default,20,Yes,NA,Female,NA,22
1135,default,block1,emma,projective,0.77,16290,confirm,27,confirm,C,NA,default,20,Yes,NA,Female,NA,23
1135,default,block1,kids,projective,1,10580,MC,28,MC,MC,NA,default,20,Yes,NA,Female,NA,24
1135,default,block1,josh,projective,0.85,16513,acknowledge,29,acknowledge,C,NA,default,20,Yes,NA,Female,NA,25
1135,default,block1,zoe,projective,1,13600,see,30,see,C,NA,default,20,Yes,NA,Female,NA,26
1135,default,block2,mia,ai,0.58,17741,prove,32,prove,C,NA,default,20,Yes,NA,Female,NA,27
1135,default,block2,muffins,ai,0.99,11429,MC,33,MC,MC,NA,default,20,Yes,NA,Female,NA,28
1135,default,block2,emily,ai,0.66,15368,say,34,say,C,NA,default,20,Yes,NA,Female,NA,29
1135,default,block2,hat,ai,0.62,10397,MC,35,MC,MC,NA,default,20,Yes,NA,Female,NA,30
1135,default,block2,owen,ai,0.01,16377,be_annoyed,36,be_annoyed,C,NA,default,20,Yes,NA,Female,NA,31
1135,default,block2,olivia,ai,0,16468,pretend,37,pretend,C,NA,default,20,Yes,NA,Female,NA,32
1135,default,block2,jon,ai,0.01,10107,discover,38,discover,C,NA,default,20,Yes,NA,Female,NA,33
1135,default,block2,zoe,ai,0.5,12108,see,39,see,C,NA,default,20,Yes,NA,Female,NA,34
1135,default,block2,danny,ai,0.01,16648,inform,40,inform,C,NA,default,20,Yes,NA,Female,NA,35
1135,default,block2,ballet,ai,1,9832,MC,41,MC,MC,NA,default,20,Yes,NA,Female,NA,36
1135,default,block2,mary,ai,0.49,16441,reveal,42,reveal,C,NA,default,20,Yes,NA,Female,NA,37
1135,default,block2,kids,ai,0.99,8689,MC,43,MC,MC,NA,default,20,Yes,NA,Female,NA,38
1135,default,block2,isabella,ai,0.75,9763,hear,44,hear,C,NA,default,20,Yes,NA,Female,NA,39
1135,default,block2,tony,ai,0.56,29323,establish,45,establish,C,NA,default,20,Yes,NA,Female,NA,40
1135,default,block2,julian,ai,0.3,32647,admit,46,admit,C,NA,default,20,Yes,NA,Female,NA,41
1135,default,block2,jayden,ai,0.37,17362,think,47,think,C,NA,default,20,Yes,NA,Female,NA,42
1135,default,block2,pizza,ai,1,10382,MC,48,MC,MC,NA,default,20,Yes,NA,Female,NA,43
1135,default,block2,sophia,ai,0.35,15938,demonstrate,49,demonstrate,C,NA,default,20,Yes,NA,Female,NA,44
1135,default,block2,grace,ai,0.37,6669,confess,50,confess,C,NA,default,20,Yes,NA,Female,NA,45
1135,default,block2,josie,ai,0.36,12531,announce,51,announce,C,NA,default,20,Yes,NA,Female,NA,46
1135,default,block2,josh,ai,0.75,11111,acknowledge,52,acknowledge,C,NA,default,20,Yes,NA,Female,NA,47
1135,default,block2,charley,ai,0.34,13865,be_right,53,be_right,C,NA,default,20,Yes,NA,Female,NA,48
1135,default,block2,emma,ai,0.74,7459,confirm,54,confirm,C,NA,default,20,Yes,NA,Female,NA,49
1135,default,block2,frank,ai,0.67,16246,know,55,know,C,NA,default,20,Yes,NA,Female,NA,50
1135,default,block2,garage,ai,1,8355,MC,56,MC,MC,NA,default,20,Yes,NA,Female,NA,51
1135,default,block2,jackson,ai,0.28,7455,suggest,57,suggest,C,NA,default,20,Yes,NA,Female,NA,52
1136,default,block1,frank,ai,0.32,16700,confess,5,confess,C,NA,default,19,Yes,NA,Female,NA,1
1136,default,block1,julian,ai,0.29,9029,think,6,think,C,NA,default,19,Yes,NA,Female,NA,2
1136,default,block1,josie,ai,0.3,7924,prove,7,prove,C,NA,default,19,Yes,NA,Female,NA,3
1136,default,block1,isabella,ai,0.34,6937,admit,8,admit,C,NA,default,19,Yes,NA,Female,NA,4
1136,default,block1,emily,ai,0.32,6049,pretend,9,pretend,C,NA,default,19,Yes,NA,Female,NA,5
1136,default,block1,jon,ai,0.27,4904,suggest,10,suggest,C,NA,default,19,Yes,NA,Female,NA,6
1136,default,block1,emma,ai,0.3,5218,see,11,see,C,NA,default,19,Yes,NA,Female,NA,7
1136,default,block1,danny,ai,0.27,5488,be_right,12,be_right,C,NA,default,19,Yes,NA,Female,NA,8
1136,default,block1,jayden,ai,0.29,5566,say,13,say,C,NA,default,19,Yes,NA,Female,NA,9
1136,default,block1,sophia,ai,0.28,1500,inform,14,inform,C,NA,default,19,Yes,NA,Female,NA,10
1136,default,block1,pizza,ai,0.27,1943,MC,15,MC,MC,NA,default,19,Yes,NA,Female,NA,11
1136,default,block1,owen,ai,0.25,3250,reveal,16,reveal,C,NA,default,19,Yes,NA,Female,NA,12
1136,default,block1,tony,ai,0.24,1842,discover,17,discover,C,NA,default,19,Yes,NA,Female,NA,13
1136,default,block1,mia,ai,0.27,1794,be_annoyed,18,be_annoyed,C,NA,default,19,Yes,NA,Female,NA,14
1136,default,block1,charley,ai,0.27,2489,announce,19,announce,C,NA,default,19,Yes,NA,Female,NA,15
1136,default,block1,garage,ai,0.27,1938,MC,20,MC,MC,NA,default,19,Yes,NA,Female,NA,16
1136,default,block1,grace,ai,0.28,2728,hear,21,hear,C,NA,default,19,Yes,NA,Female,NA,17
1136,default,block1,josh,ai,0.26,1858,confirm,22,confirm,C,NA,default,19,Yes,NA,Female,NA,18
1136,default,block1,muffins,ai,0.25,1189,MC,23,MC,MC,NA,default,19,Yes,NA,Female,NA,19
1136,default,block1,hat,ai,0.25,1578,MC,24,MC,MC,NA,default,19,Yes,NA,Female,NA,20
1136,default,block1,olivia,ai,0.29,4913,demonstrate,25,demonstrate,C,NA,default,19,Yes,NA,Female,NA,21
1136,default,block1,kids,ai,0.31,1851,MC,26,MC,MC,NA,default,19,Yes,NA,Female,NA,22
1136,default,block1,zoe,ai,0.46,1260,acknowledge,27,acknowledge,C,NA,default,19,Yes,NA,Female,NA,23
1136,default,block1,mary,ai,0.37,1013,establish,28,establish,C,NA,default,19,Yes,NA,Female,NA,24
1136,default,block1,ballet,ai,0.33,1436,MC,29,MC,MC,NA,default,19,Yes,NA,Female,NA,25
1136,default,block1,jackson,ai,0.32,1156,know,30,know,C,NA,default,19,Yes,NA,Female,NA,26
1136,default,block2,grace,projective,0.88,15308,hear,32,hear,C,NA,default,19,Yes,NA,Female,NA,27
1136,default,block2,mary,projective,0.55,9803,establish,33,establish,C,NA,default,19,Yes,NA,Female,NA,28
1136,default,block2,jackson,projective,0.81,5224,know,34,know,C,NA,default,19,Yes,NA,Female,NA,29
1136,default,block2,jayden,projective,0.38,5868,say,35,say,C,NA,default,19,Yes,NA,Female,NA,30
1136,default,block2,tony,projective,0.92,5424,discover,36,discover,C,NA,default,19,Yes,NA,Female,NA,31
1136,default,block2,pizza,projective,0.98,5260,MC,37,MC,MC,NA,default,19,Yes,NA,Female,NA,32
1136,default,block2,julian,projective,0.47,9860,think,38,think,C,NA,default,19,Yes,NA,Female,NA,33
1136,default,block2,jon,projective,0.54,5608,suggest,39,suggest,C,NA,default,19,Yes,NA,Female,NA,34
1136,default,block2,kids,projective,1,5513,MC,40,MC,MC,NA,default,19,Yes,NA,Female,NA,35
1136,default,block2,josh,projective,0.55,6500,confirm,41,confirm,C,NA,default,19,Yes,NA,Female,NA,36
1136,default,block2,josie,projective,0.4,5082,prove,42,prove,C,NA,default,19,Yes,NA,Female,NA,37
1136,default,block2,charley,projective,0.48,4947,announce,43,announce,C,NA,default,19,Yes,NA,Female,NA,38
1136,default,block2,mia,projective,0.99,6653,be_annoyed,44,be_annoyed,C,NA,default,19,Yes,NA,Female,NA,39
1136,default,block2,olivia,projective,0.52,6506,demonstrate,45,demonstrate,C,NA,default,19,Yes,NA,Female,NA,40
1136,default,block2,zoe,projective,0.96,5163,acknowledge,46,acknowledge,C,NA,default,19,Yes,NA,Female,NA,41
1136,default,block2,hat,projective,0.98,4341,MC,47,MC,MC,NA,default,19,Yes,NA,Female,NA,42
1136,default,block2,muffins,projective,0.98,3541,MC,48,MC,MC,NA,default,19,Yes,NA,Female,NA,43
1136,default,block2,sophia,projective,0.98,5200,inform,49,inform,C,NA,default,19,Yes,NA,Female,NA,44
1136,default,block2,owen,projective,0.92,6294,reveal,50,reveal,C,NA,default,19,Yes,NA,Female,NA,45
1136,default,block2,frank,projective,0.97,3663,confess,51,confess,C,NA,default,19,Yes,NA,Female,NA,46
1136,default,block2,garage,projective,0.98,3471,MC,52,MC,MC,NA,default,19,Yes,NA,Female,NA,47
1136,default,block2,isabella,projective,0.9,4068,admit,53,admit,C,NA,default,19,Yes,NA,Female,NA,48
1136,default,block2,ballet,projective,1,3093,MC,54,MC,MC,NA,default,19,Yes,NA,Female,NA,49
1136,default,block2,emily,projective,0.51,4971,pretend,55,pretend,C,NA,default,19,Yes,NA,Female,NA,50
1136,default,block2,emma,projective,0.51,3166,see,56,see,C,NA,default,19,Yes,NA,Female,NA,51
1136,default,block2,danny,projective,0.27,4125,be_right,57,be_right,C,NA,default,19,Yes,NA,Female,NA,52
1137,default,block1,emily,ai,1,22082,confess,5,confess,C,NA,default,18,Yes,NA,Female,NA,1
1137,default,block1,josie,ai,0.98,14993,establish,6,establish,C,NA,default,18,Yes,NA,Female,NA,2
1137,default,block1,charley,ai,0,18427,hear,7,hear,C,NA,default,18,Yes,NA,Female,NA,3
1137,default,block1,kids,ai,1,10940,MC,8,MC,MC,NA,default,18,Yes,NA,Female,NA,4
1137,default,block1,jackson,ai,1,11390,say,9,say,C,NA,default,18,Yes,NA,Female,NA,5
1137,default,block1,josh,ai,0,18463,prove,10,prove,C,NA,default,18,Yes,NA,Female,NA,6
1137,default,block1,owen,ai,0.01,15007,suggest,11,suggest,C,NA,default,18,Yes,NA,Female,NA,7
1137,default,block1,pizza,ai,1,5903,MC,12,MC,MC,NA,default,18,Yes,NA,Female,NA,8
1137,default,block1,tony,ai,0,6560,reveal,13,reveal,C,NA,default,18,Yes,NA,Female,NA,9
1137,default,block1,ballet,ai,1,6571,MC,14,MC,MC,NA,default,18,Yes,NA,Female,NA,10
1137,default,block1,grace,ai,1,12705,be_annoyed,15,be_annoyed,C,NA,default,18,Yes,NA,Female,NA,11
1137,default,block1,zoe,ai,0,7186,acknowledge,16,acknowledge,C,NA,default,18,Yes,NA,Female,NA,12
1137,default,block1,jayden,ai,0,7030,announce,17,announce,C,NA,default,18,Yes,NA,Female,NA,13
1137,default,block1,sophia,ai,0,5983,confirm,18,confirm,C,NA,default,18,Yes,NA,Female,NA,14
1137,default,block1,jon,ai,0,10352,demonstrate,19,demonstrate,C,NA,default,18,Yes,NA,Female,NA,15
1137,default,block1,isabella,ai,0,13166,discover,20,discover,C,NA,default,18,Yes,NA,Female,NA,16
1137,default,block1,muffins,ai,0.97,20596,MC,21,MC,MC,NA,default,18,Yes,NA,Female,NA,17
1137,default,block1,danny,ai,0.02,7950,think,22,think,C,NA,default,18,Yes,NA,Female,NA,18
1137,default,block1,olivia,ai,0.01,11726,be_right,23,be_right,C,NA,default,18,Yes,NA,Female,NA,19
1137,default,block1,garage,ai,1,10759,MC,24,MC,MC,NA,default,18,Yes,NA,Female,NA,20
1137,default,block1,julian,ai,0,7891,admit,25,admit,C,NA,default,18,Yes,NA,Female,NA,21
1137,default,block1,mia,ai,0.02,5561,inform,26,inform,C,NA,default,18,Yes,NA,Female,NA,22
1137,default,block1,hat,ai,0.99,4267,MC,27,MC,MC,NA,default,18,Yes,NA,Female,NA,23
1137,default,block1,frank,ai,0.02,8725,pretend,28,pretend,C,NA,default,18,Yes,NA,Female,NA,24
1137,default,block1,mary,ai,0.01,12290,see,29,see,C,NA,default,18,Yes,NA,Female,NA,25
1137,default,block1,emma,ai,0.02,9667,know,30,know,C,NA,default,18,Yes,NA,Female,NA,26
1137,default,block2,julian,projective,0.98,7779,admit,32,admit,C,NA,default,18,Yes,NA,Female,NA,27
1137,default,block2,charley,projective,0.99,4902,hear,33,hear,C,NA,default,18,Yes,NA,Female,NA,28
1137,default,block2,owen,projective,0.02,5016,suggest,34,suggest,C,NA,default,18,Yes,NA,Female,NA,29
1137,default,block2,garage,projective,0.98,3746,MC,35,MC,MC,NA,default,18,Yes,NA,Female,NA,30
1137,default,block2,emma,projective,1,5481,know,36,know,C,NA,default,18,Yes,NA,Female,NA,31
1137,default,block2,zoe,projective,0.99,5180,acknowledge,37,acknowledge,C,NA,default,18,Yes,NA,Female,NA,32
1137,default,block2,jon,projective,0.03,4968,demonstrate,38,demonstrate,C,NA,default,18,Yes,NA,Female,NA,33
1137,default,block2,frank,projective,0.03,4487,pretend,39,pretend,C,NA,default,18,Yes,NA,Female,NA,34
1137,default,block2,grace,projective,1,7523,be_annoyed,40,be_annoyed,C,NA,default,18,Yes,NA,Female,NA,35
1137,default,block2,ballet,projective,0.99,4969,MC,41,MC,MC,NA,default,18,Yes,NA,Female,NA,36
1137,default,block2,emily,projective,0.99,9295,confess,42,confess,C,NA,default,18,Yes,NA,Female,NA,37
1137,default,block2,tony,projective,0.98,4358,reveal,43,reveal,C,NA,default,18,Yes,NA,Female,NA,38
1137,default,block2,muffins,projective,0.99,6464,MC,44,MC,MC,NA,default,18,Yes,NA,Female,NA,39
1137,default,block2,mary,projective,0.99,4031,see,45,see,C,NA,default,18,Yes,NA,Female,NA,40
1137,default,block2,olivia,projective,0.01,6776,be_right,46,be_right,C,NA,default,18,Yes,NA,Female,NA,41
1137,default,block2,jackson,projective,0.99,10946,say,47,say,C,NA,default,18,Yes,NA,Female,NA,42
1137,default,block2,josh,projective,0,8336,prove,48,prove,C,NA,default,18,Yes,NA,Female,NA,43
1137,default,block2,mia,projective,0.98,6194,inform,49,inform,C,NA,default,18,Yes,NA,Female,NA,44
1137,default,block2,pizza,projective,1,4518,MC,50,MC,MC,NA,default,18,Yes,NA,Female,NA,45
1137,default,block2,isabella,projective,0.99,6898,discover,51,discover,C,NA,default,18,Yes,NA,Female,NA,46
1137,default,block2,hat,projective,1,4480,MC,52,MC,MC,NA,default,18,Yes,NA,Female,NA,47
1137,default,block2,danny,projective,0.03,4462,think,53,think,C,NA,default,18,Yes,NA,Female,NA,48
1137,default,block2,jayden,projective,0.99,5243,announce,54,announce,C,NA,default,18,Yes,NA,Female,NA,49
1137,default,block2,kids,projective,0.99,3747,MC,55,MC,MC,NA,default,18,Yes,NA,Female,NA,50
1137,default,block2,sophia,projective,0.01,4797,confirm,56,confirm,C,NA,default,18,Yes,NA,Female,NA,51
1137,default,block2,josie,projective,0.99,3437,establish,57,establish,C,NA,default,18,Yes,NA,Female,NA,52
1138,default,block1,frank,projective,0.94,37745,inform,5,inform,C,NA,default,31,Yes,NA,Female,NA,1
1138,default,block1,ballet,projective,0.96,12887,MC,6,MC,MC,NA,default,31,Yes,NA,Female,NA,2
1138,default,block1,zoe,projective,0.96,13009,see,7,see,C,NA,default,31,Yes,NA,Female,NA,3
1138,default,block1,mary,projective,0.95,39301,discover,8,discover,C,NA,default,31,Yes,NA,Female,NA,4
1138,default,block1,josie,projective,0.97,34738,be_annoyed,9,be_annoyed,C,NA,default,31,Yes,NA,Female,NA,5
1138,default,block1,isabella,projective,0.05,19233,establish,10,establish,C,NA,default,31,Yes,NA,Female,NA,6
1138,default,block1,kids,projective,0.96,14342,MC,11,MC,MC,NA,default,31,Yes,NA,Female,NA,7
1138,default,block1,jayden,projective,0.04,13302,admit,12,admit,C,NA,default,31,Yes,NA,Female,NA,8
1138,default,block1,mia,projective,0.08,22704,say,13,say,C,NA,default,31,Yes,NA,Female,NA,9
1138,default,block1,jon,projective,0.03,25707,think,14,think,C,NA,default,31,Yes,NA,Female,NA,10
1138,default,block1,pizza,projective,0.97,9686,MC,15,MC,MC,NA,default,31,Yes,NA,Female,NA,11
1138,default,block1,tony,projective,0.06,10398,confirm,16,confirm,C,NA,default,31,Yes,NA,Female,NA,12
1138,default,block1,hat,projective,0.98,5303,MC,17,MC,MC,NA,default,31,Yes,NA,Female,NA,13
1138,default,block1,danny,projective,1,20996,know,18,know,C,NA,default,31,Yes,NA,Female,NA,14
1138,default,block1,muffins,projective,0.97,12161,MC,19,MC,MC,NA,default,31,Yes,NA,Female,NA,15
1138,default,block1,emma,projective,0.05,91507,confess,20,confess,C,NA,default,31,Yes,NA,Female,NA,16
1138,default,block1,grace,projective,0.08,9989,reveal,21,reveal,C,NA,default,31,Yes,NA,Female,NA,17
1138,default,block1,julian,projective,0.07,16662,demonstrate,22,demonstrate,C,NA,default,31,Yes,NA,Female,NA,18
1138,default,block1,josh,projective,0.03,29889,prove,23,prove,C,NA,default,31,Yes,NA,Female,NA,19
1138,default,block1,olivia,projective,0.04,35028,suggest,24,suggest,C,NA,default,31,Yes,NA,Female,NA,20
1138,default,block1,emily,projective,0.07,14659,pretend,25,pretend,C,NA,default,31,Yes,NA,Female,NA,21
1138,default,block1,jackson,projective,0.98,16042,hear,26,hear,C,NA,default,31,Yes,NA,Female,NA,22
1138,default,block1,charley,projective,0.06,15296,acknowledge,27,acknowledge,C,NA,default,31,Yes,NA,Female,NA,23
1138,default,block1,garage,projective,0.96,6845,MC,28,MC,MC,NA,default,31,Yes,NA,Female,NA,24
1138,default,block1,owen,projective,0.06,10773,be_right,29,be_right,C,NA,default,31,Yes,NA,Female,NA,25
1138,default,block1,sophia,projective,0.96,24719,announce,30,announce,C,NA,default,31,Yes,NA,Female,NA,26
1138,default,block2,jon,ai,0.01,35447,think,32,think,C,NA,default,31,Yes,NA,Female,NA,27
1138,default,block2,charley,ai,0.04,15950,acknowledge,33,acknowledge,C,NA,default,31,Yes,NA,Female,NA,28
1138,default,block2,josh,ai,0.02,44836,prove,34,prove,C,NA,default,31,Yes,NA,Female,NA,29
1138,default,block2,isabella,ai,0.97,25997,establish,35,establish,C,NA,default,31,Yes,NA,Female,NA,30
1138,default,block2,kids,ai,0.93,21217,MC,36,MC,MC,NA,default,31,Yes,NA,Female,NA,31
1138,default,block2,sophia,ai,0.02,10541,announce,37,announce,C,NA,default,31,Yes,NA,Female,NA,32
1138,default,block2,emily,ai,0.03,14690,pretend,38,pretend,C,NA,default,31,Yes,NA,Female,NA,33
1138,default,block2,muffins,ai,0.93,17645,MC,39,MC,MC,NA,default,31,Yes,NA,Female,NA,34
1138,default,block2,garage,ai,0.97,16453,MC,40,MC,MC,NA,default,31,Yes,NA,Female,NA,35
1138,default,block2,tony,ai,0.01,11591,confirm,41,confirm,C,NA,default,31,Yes,NA,Female,NA,36
1138,default,block2,hat,ai,0.01,25197,MC,42,MC,MC,NA,default,31,Yes,NA,Female,NA,37
1138,default,block2,frank,ai,0.93,13004,inform,43,inform,C,NA,default,31,Yes,NA,Female,NA,38
1138,default,block2,mia,ai,0.15,10600,say,44,say,C,NA,default,31,Yes,NA,Female,NA,39
1138,default,block2,pizza,ai,0.9,11011,MC,45,MC,MC,NA,default,31,Yes,NA,Female,NA,40
1138,default,block2,olivia,ai,0.95,36105,suggest,46,suggest,C,NA,default,31,Yes,NA,Female,NA,41
1138,default,block2,danny,ai,0.88,8480,know,47,know,C,NA,default,31,Yes,NA,Female,NA,42
1138,default,block2,josie,ai,0.93,18294,be_annoyed,48,be_annoyed,C,NA,default,31,Yes,NA,Female,NA,43
1138,default,block2,ballet,ai,0.97,11723,MC,49,MC,MC,NA,default,31,Yes,NA,Female,NA,44
1138,default,block2,jayden,ai,0.07,23605,admit,50,admit,C,NA,default,31,Yes,NA,Female,NA,45
1138,default,block2,julian,ai,0.92,8112,demonstrate,51,demonstrate,C,NA,default,31,Yes,NA,Female,NA,46
1138,default,block2,mary,ai,0.93,9975,discover,52,discover,C,NA,default,31,Yes,NA,Female,NA,47
1138,default,block2,emma,ai,0.92,10423,confess,53,confess,C,NA,default,31,Yes,NA,Female,NA,48
1138,default,block2,grace,ai,0.97,19045,reveal,54,reveal,C,NA,default,31,Yes,NA,Female,NA,49
1138,default,block2,zoe,ai,0.92,12920,see,55,see,C,NA,default,31,Yes,NA,Female,NA,50
1138,default,block2,jackson,ai,0.95,9304,hear,56,hear,C,NA,default,31,Yes,NA,Female,NA,51
1138,default,block2,owen,ai,0.96,7149,be_right,57,be_right,C,NA,default,31,Yes,NA,Female,NA,52
