workerid,proliferate.condition.x,block,content,question_type,response,rt,short_trigger,slide_number_in_experiment,trigger,trigger_class,error.x,proliferate.condition.y,age,american,comments,gender,language,error.y,trial
1833,default,block1,hat,projective,1,5593,MC,5,MC,MC,NA,default,29,Yes,NA,Female,english,NA,1
1833,default,block1,pizza,projective,1,7798,MC,6,MC,MC,NA,default,29,Yes,NA,Female,english,NA,2
1833,default,block1,danny,projective,0,11543,establish,7,establish,C,NA,default,29,Yes,NA,Female,english,NA,3
1833,default,block1,muffins,projective,1,6108,MC,8,MC,MC,NA,default,29,Yes,NA,Female,english,NA,4
1833,default,block1,ballet,projective,1,6522,MC,9,MC,MC,NA,default,29,Yes,NA,Female,english,NA,5
1833,default,block1,emily,projective,0.22,17188,announce,10,announce,C,NA,default,29,Yes,NA,Female,english,NA,6
1833,default,block1,tony,projective,0.3,6968,hear,11,hear,C,NA,default,29,Yes,NA,Female,english,NA,7
1833,default,block1,garage,projective,0.91,8368,MC,12,MC,MC,NA,default,29,Yes,NA,Female,english,NA,8
1833,default,block1,zoe,projective,0.21,22233,demonstrate,13,demonstrate,C,NA,default,29,Yes,NA,Female,english,NA,9
1833,default,block1,sophia,projective,0.64,8854,think,14,think,C,NA,default,29,Yes,NA,Female,english,NA,10
1833,default,block1,olivia,projective,0.18,6026,confess,15,confess,C,NA,default,29,Yes,NA,Female,english,NA,11
1833,default,block1,josie,projective,1,69119,be_annoyed,16,be_annoyed,C,NA,default,29,Yes,NA,Female,english,NA,12
1833,default,block1,frank,projective,1,5588,inform,17,inform,C,NA,default,29,Yes,NA,Female,english,NA,13
1833,default,block1,jon,projective,0.78,4778,discover,18,discover,C,NA,default,29,Yes,NA,Female,english,NA,14
1833,default,block1,julian,projective,1,4454,know,19,know,C,NA,default,29,Yes,NA,Female,english,NA,15
1833,default,block1,jayden,projective,1,6782,acknowledge,20,acknowledge,C,NA,default,29,Yes,NA,Female,english,NA,16
1833,default,block1,jackson,projective,0.37,17833,reveal,21,reveal,C,NA,default,29,Yes,NA,Female,english,NA,17
1833,default,block1,isabella,projective,0.23,24466,confirm,22,confirm,C,NA,default,29,Yes,NA,Female,english,NA,18
1833,default,block1,charley,projective,0.6,4308,admit,23,admit,C,NA,default,29,Yes,NA,Female,english,NA,19
1833,default,block1,emma,projective,0.26,5830,suggest,24,suggest,C,NA,default,29,Yes,NA,Female,english,NA,20
1833,default,block1,owen,projective,0.6,28609,see,25,see,C,NA,default,29,Yes,NA,Female,english,NA,21
1833,default,block1,josh,projective,0.24,15394,say,26,say,C,NA,default,29,Yes,NA,Female,english,NA,22
1833,default,block1,mia,projective,0.13,8214,prove,27,prove,C,NA,default,29,Yes,NA,Female,english,NA,23
1833,default,block1,kids,projective,1,11528,MC,28,MC,MC,NA,default,29,Yes,NA,Female,english,NA,24
1833,default,block1,grace,projective,0.27,33984,pretend,29,pretend,C,NA,default,29,Yes,NA,Female,english,NA,25
1833,default,block1,mary,projective,0,4720,be_right,30,be_right,C,NA,default,29,Yes,NA,Female,english,NA,26
1833,default,block2,kids,ai,1,7887,MC,32,MC,MC,NA,default,29,Yes,NA,Female,english,NA,27
1833,default,block2,tony,ai,0,5538,hear,33,hear,C,NA,default,29,Yes,NA,Female,english,NA,28
1833,default,block2,owen,ai,0.14,6258,see,34,see,C,NA,default,29,Yes,NA,Female,english,NA,29
1833,default,block2,zoe,ai,0.69,7052,demonstrate,35,demonstrate,C,NA,default,29,Yes,NA,Female,english,NA,30
1833,default,block2,emily,ai,0.24,10242,announce,36,announce,C,NA,default,29,Yes,NA,Female,english,NA,31
1833,default,block2,mary,ai,0.21999999999999997,6092,be_right,37,be_right,C,NA,default,29,Yes,NA,Female,english,NA,32
1833,default,block2,olivia,ai,0.06999999999999995,5668,confess,38,confess,C,NA,default,29,Yes,NA,Female,english,NA,33
1833,default,block2,charley,ai,0.14,4560,admit,39,admit,C,NA,default,29,Yes,NA,Female,english,NA,34
1833,default,block2,emma,ai,0.010000000000000009,4784,suggest,40,suggest,C,NA,default,29,Yes,NA,Female,english,NA,35
1833,default,block2,ballet,ai,0.5900000000000001,6368,MC,41,MC,MC,NA,default,29,Yes,NA,Female,english,NA,36
1833,default,block2,frank,ai,0.17000000000000004,7858,inform,42,inform,C,NA,default,29,Yes,NA,Female,english,NA,37
1833,default,block2,julian,ai,0.10999999999999999,8070,know,43,know,C,NA,default,29,Yes,NA,Female,english,NA,38
1833,default,block2,muffins,ai,0.28,6572,MC,44,MC,MC,NA,default,29,Yes,NA,Female,english,NA,39
1833,default,block2,isabella,ai,0.13,4640,confirm,45,confirm,C,NA,default,29,Yes,NA,Female,english,NA,40
1833,default,block2,mia,ai,0.13,4818,prove,46,prove,C,NA,default,29,Yes,NA,Female,english,NA,41
1833,default,block2,hat,ai,0.73,4786,MC,47,MC,MC,NA,default,29,Yes,NA,Female,english,NA,42
1833,default,block2,josie,ai,0.94,4986,be_annoyed,48,be_annoyed,C,NA,default,29,Yes,NA,Female,english,NA,43
1833,default,block2,jackson,ai,0.17000000000000004,6543,reveal,49,reveal,C,NA,default,29,Yes,NA,Female,english,NA,44
1833,default,block2,garage,ai,0.61,4857,MC,50,MC,MC,NA,default,29,Yes,NA,Female,english,NA,45
1833,default,block2,jon,ai,0.18000000000000005,6388,discover,51,discover,C,NA,default,29,Yes,NA,Female,english,NA,46
1833,default,block2,danny,ai,0.14,4226,establish,52,establish,C,NA,default,29,Yes,NA,Female,english,NA,47
1833,default,block2,pizza,ai,0.92,5360,MC,53,MC,MC,NA,default,29,Yes,NA,Female,english,NA,48
1833,default,block2,jayden,ai,0.12,4890,acknowledge,54,acknowledge,C,NA,default,29,Yes,NA,Female,english,NA,49
1833,default,block2,sophia,ai,0,10590,think,55,think,C,NA,default,29,Yes,NA,Female,english,NA,50
1833,default,block2,grace,ai,0.24,6052,pretend,56,pretend,C,NA,default,29,Yes,NA,Female,english,NA,51
1833,default,block2,josh,ai,0.050000000000000044,6456,say,57,say,C,NA,default,29,Yes,NA,Female,english,NA,52
1895,default,block1,julian,projective,0.98,14014,acknowledge,5,acknowledge,C,NA,default,50,Yes,NA,Female,English,NA,1
1895,default,block1,grace,projective,0.98,10086,announce,6,announce,C,NA,default,50,Yes,NA,Female,English,NA,2
1895,default,block1,zoe,projective,1,9056,hear,7,hear,C,NA,default,50,Yes,NA,Female,English,NA,3
1895,default,block1,frank,projective,0.98,9528,confess,8,confess,C,NA,default,50,Yes,NA,Female,English,NA,4
1895,default,block1,jon,projective,0.99,6791,discover,9,discover,C,NA,default,50,Yes,NA,Female,English,NA,5
1895,default,block1,emma,projective,0.87,16656,demonstrate,10,demonstrate,C,NA,default,50,Yes,NA,Female,English,NA,6
1895,default,block1,charley,projective,0.99,7920,be_annoyed,11,be_annoyed,C,NA,default,50,Yes,NA,Female,English,NA,7
1895,default,block1,emily,projective,0.98,9359,inform,12,inform,C,NA,default,50,Yes,NA,Female,English,NA,8
1895,default,block1,jackson,projective,0.87,12009,think,13,think,C,NA,default,50,Yes,NA,Female,English,NA,9
1895,default,block1,kids,projective,0.99,11112,MC,14,MC,MC,NA,default,50,Yes,NA,Female,English,NA,10
1895,default,block1,pizza,projective,0.99,5608,MC,15,MC,MC,NA,default,50,Yes,NA,Female,English,NA,11
1895,default,block1,josh,projective,0.94,11279,know,16,know,C,NA,default,50,Yes,NA,Female,English,NA,12
1895,default,block1,tony,projective,0.14,29047,prove,17,prove,C,NA,default,50,Yes,NA,Female,English,NA,13
1895,default,block1,hat,projective,0.99,6584,MC,18,MC,MC,NA,default,50,Yes,NA,Female,English,NA,14
1895,default,block1,mary,projective,0.3,11816,confirm,19,confirm,C,NA,default,50,Yes,NA,Female,English,NA,15
1895,default,block1,josie,projective,0.22,14232,suggest,20,suggest,C,NA,default,50,Yes,NA,Female,English,NA,16
1895,default,block1,garage,projective,0.99,7568,MC,21,MC,MC,NA,default,50,Yes,NA,Female,English,NA,17
1895,default,block1,owen,projective,0.07,23409,establish,22,establish,C,NA,default,50,Yes,NA,Female,English,NA,18
1895,default,block1,danny,projective,0.91,19560,reveal,23,reveal,C,NA,default,50,Yes,NA,Female,English,NA,19
1895,default,block1,ballet,projective,0.99,4551,MC,24,MC,MC,NA,default,50,Yes,NA,Female,English,NA,20
1895,default,block1,olivia,projective,0.32,11040,admit,25,admit,C,NA,default,50,Yes,NA,Female,English,NA,21
1895,default,block1,muffins,projective,0.99,4584,MC,26,MC,MC,NA,default,50,Yes,NA,Female,English,NA,22
1895,default,block1,isabella,projective,0.02,27944,be_right,27,be_right,C,NA,default,50,Yes,NA,Female,English,NA,23
1895,default,block1,mia,projective,0.9,11705,say,28,say,C,NA,default,50,Yes,NA,Female,English,NA,24
1895,default,block1,jayden,projective,0.99,7799,see,29,see,C,NA,default,50,Yes,NA,Female,English,NA,25
1895,default,block1,sophia,projective,0.14,15097,pretend,30,pretend,C,NA,default,50,Yes,NA,Female,English,NA,26
1895,default,block2,olivia,ai,0.010000000000000009,14783,admit,32,admit,C,NA,default,50,Yes,NA,Female,English,NA,27
1895,default,block2,mia,ai,0.020000000000000018,15370,say,33,say,C,NA,default,50,Yes,NA,Female,English,NA,28
1895,default,block2,frank,ai,0.010000000000000009,10351,confess,34,confess,C,NA,default,50,Yes,NA,Female,English,NA,29
1895,default,block2,danny,ai,0.010000000000000009,6528,reveal,35,reveal,C,NA,default,50,Yes,NA,Female,English,NA,30
1895,default,block2,owen,ai,0.010000000000000009,11128,establish,36,establish,C,NA,default,50,Yes,NA,Female,English,NA,31
1895,default,block2,charley,ai,0.010000000000000009,7895,be_annoyed,37,be_annoyed,C,NA,default,50,Yes,NA,Female,English,NA,32
1895,default,block2,kids,ai,0.010000000000000009,9160,MC,38,MC,MC,NA,default,50,Yes,NA,Female,English,NA,33
1895,default,block2,jon,ai,0.010000000000000009,8441,discover,39,discover,C,NA,default,50,Yes,NA,Female,English,NA,34
1895,default,block2,grace,ai,0.020000000000000018,23528,announce,40,announce,C,NA,default,50,Yes,NA,Female,English,NA,35
1895,default,block2,pizza,ai,0.020000000000000018,4479,MC,41,MC,MC,NA,default,50,Yes,NA,Female,English,NA,36
1895,default,block2,julian,ai,0.010000000000000009,4547,acknowledge,42,acknowledge,C,NA,default,50,Yes,NA,Female,English,NA,37
1895,default,block2,sophia,ai,0.98,12565,pretend,43,pretend,C,NA,default,50,Yes,NA,Female,English,NA,38
1895,default,block2,muffins,ai,0.020000000000000018,3736,MC,44,MC,MC,NA,default,50,Yes,NA,Female,English,NA,39
1895,default,block2,tony,ai,0.64,15496,prove,45,prove,C,NA,default,50,Yes,NA,Female,English,NA,40
1895,default,block2,josh,ai,0.020000000000000018,6289,know,46,know,C,NA,default,50,Yes,NA,Female,English,NA,41
1895,default,block2,jayden,ai,0.020000000000000018,5903,see,47,see,C,NA,default,50,Yes,NA,Female,English,NA,42
1895,default,block2,hat,ai,0.010000000000000009,3120,MC,48,MC,MC,NA,default,50,Yes,NA,Female,English,NA,43
1895,default,block2,josie,ai,0.63,13408,suggest,49,suggest,C,NA,default,50,Yes,NA,Female,English,NA,44
1895,default,block2,emma,ai,0.5700000000000001,8113,demonstrate,50,demonstrate,C,NA,default,50,Yes,NA,Female,English,NA,45
1895,default,block2,ballet,ai,0.010000000000000009,3287,MC,51,MC,MC,NA,default,50,Yes,NA,Female,English,NA,46
1895,default,block2,zoe,ai,0.010000000000000009,5400,hear,52,hear,C,NA,default,50,Yes,NA,Female,English,NA,47
1895,default,block2,mary,ai,0.94,10720,confirm,53,confirm,C,NA,default,50,Yes,NA,Female,English,NA,48
1895,default,block2,emily,ai,0.020000000000000018,7287,inform,54,inform,C,NA,default,50,Yes,NA,Female,English,NA,49
1895,default,block2,jackson,ai,0.020000000000000018,6016,think,55,think,C,NA,default,50,Yes,NA,Female,English,NA,50
1895,default,block2,garage,ai,0.010000000000000009,14456,MC,56,MC,MC,NA,default,50,Yes,NA,Female,English,NA,51
1895,default,block2,isabella,ai,0.99,9472,be_right,57,be_right,C,NA,default,50,Yes,NA,Female,English,NA,52
1966,default,block1,mary,ai,1,14805,think,5,think,C,NA,default,28,Yes,NA,Male,English,NA,1
1966,default,block1,emma,ai,0,9820,announce,6,announce,C,NA,default,28,Yes,NA,Male,English,NA,2
1966,default,block1,emily,ai,0,9059,be_annoyed,7,be_annoyed,C,NA,default,28,Yes,NA,Male,English,NA,3
1966,default,block1,frank,ai,1,10803,establish,8,establish,C,NA,default,28,Yes,NA,Male,English,NA,4
1966,default,block1,kids,ai,0,8889,MC,9,MC,MC,NA,default,28,Yes,NA,Male,English,NA,5
1966,default,block1,josie,ai,0,7808,discover,10,discover,C,NA,default,28,Yes,NA,Male,English,NA,6
1966,default,block1,sophia,ai,1,5477,hear,11,hear,C,NA,default,28,Yes,NA,Male,English,NA,7
1966,default,block1,garage,ai,0,9061,MC,12,MC,MC,NA,default,28,Yes,NA,Male,English,NA,8
1966,default,block1,isabella,ai,1,4955,confirm,13,confirm,C,NA,default,28,Yes,NA,Male,English,NA,9
1966,default,block1,jon,ai,1,5002,confess,14,confess,C,NA,default,28,Yes,NA,Male,English,NA,10
1966,default,block1,owen,ai,1,5314,suggest,15,suggest,C,NA,default,28,Yes,NA,Male,English,NA,11
1966,default,block1,charley,ai,1,5856,pretend,16,pretend,C,NA,default,28,Yes,NA,Male,English,NA,12
1966,default,block1,muffins,ai,0,7321,MC,17,MC,MC,NA,default,28,Yes,NA,Male,English,NA,13
1966,default,block1,danny,ai,1,12425,see,18,see,C,NA,default,28,Yes,NA,Male,English,NA,14
1966,default,block1,ballet,ai,0,5208,MC,19,MC,MC,NA,default,28,Yes,NA,Male,English,NA,15
1966,default,block1,mia,ai,1,4389,say,20,say,C,NA,default,28,Yes,NA,Male,English,NA,16
1966,default,block1,zoe,ai,1,4200,acknowledge,21,acknowledge,C,NA,default,28,Yes,NA,Male,English,NA,17
1966,default,block1,grace,ai,1,11269,know,22,know,C,NA,default,28,Yes,NA,Male,English,NA,18
1966,default,block1,jayden,ai,1,3933,be_right,23,be_right,C,NA,default,28,Yes,NA,Male,English,NA,19
1966,default,block1,julian,ai,1,10501,admit,24,admit,C,NA,default,28,Yes,NA,Male,English,NA,20
1966,default,block1,hat,ai,0,8994,MC,25,MC,MC,NA,default,28,Yes,NA,Male,English,NA,21
1966,default,block1,jackson,ai,1,6502,inform,26,inform,C,NA,default,28,Yes,NA,Male,English,NA,22
1966,default,block1,tony,ai,1,4308,reveal,27,reveal,C,NA,default,28,Yes,NA,Male,English,NA,23
1966,default,block1,pizza,ai,0,5064,MC,28,MC,MC,NA,default,28,Yes,NA,Male,English,NA,24
1966,default,block1,olivia,ai,1,9455,prove,29,prove,C,NA,default,28,Yes,NA,Male,English,NA,25
1966,default,block1,josh,ai,1,7626,demonstrate,30,demonstrate,C,NA,default,28,Yes,NA,Male,English,NA,26
1966,default,block2,jackson,projective,0,4922,inform,32,inform,C,NA,default,28,Yes,NA,Male,English,NA,27
1966,default,block2,charley,projective,0,3973,pretend,33,pretend,C,NA,default,28,Yes,NA,Male,English,NA,28
1966,default,block2,kids,projective,1,3695,MC,34,MC,MC,NA,default,28,Yes,NA,Male,English,NA,29
1966,default,block2,olivia,projective,0,4307,prove,35,prove,C,NA,default,28,Yes,NA,Male,English,NA,30
1966,default,block2,pizza,projective,1,8090,MC,36,MC,MC,NA,default,28,Yes,NA,Male,English,NA,31
1966,default,block2,josh,projective,0,4192,demonstrate,37,demonstrate,C,NA,default,28,Yes,NA,Male,English,NA,32
1966,default,block2,ballet,projective,1,5825,MC,38,MC,MC,NA,default,28,Yes,NA,Male,English,NA,33
1966,default,block2,danny,projective,0,4619,see,39,see,C,NA,default,28,Yes,NA,Male,English,NA,34
1966,default,block2,emily,projective,0.48,5823,be_annoyed,40,be_annoyed,C,NA,default,28,Yes,NA,Male,English,NA,35
1966,default,block2,mary,projective,0.49,4414,think,41,think,C,NA,default,28,Yes,NA,Male,English,NA,36
1966,default,block2,jon,projective,0,8792,confess,42,confess,C,NA,default,28,Yes,NA,Male,English,NA,37
1966,default,block2,jayden,projective,0,8292,be_right,43,be_right,C,NA,default,28,Yes,NA,Male,English,NA,38
1966,default,block2,grace,projective,0,5828,know,44,know,C,NA,default,28,Yes,NA,Male,English,NA,39
1966,default,block2,mia,projective,0,4522,say,45,say,C,NA,default,28,Yes,NA,Male,English,NA,40
1966,default,block2,muffins,projective,1,3825,MC,46,MC,MC,NA,default,28,Yes,NA,Male,English,NA,41
1966,default,block2,sophia,projective,0,4921,hear,47,hear,C,NA,default,28,Yes,NA,Male,English,NA,42
1966,default,block2,owen,projective,0,11767,suggest,48,suggest,C,NA,default,28,Yes,NA,Male,English,NA,43
1966,default,block2,emma,projective,0.51,6636,announce,49,announce,C,NA,default,28,Yes,NA,Male,English,NA,44
1966,default,block2,frank,projective,0,3166,establish,50,establish,C,NA,default,28,Yes,NA,Male,English,NA,45
1966,default,block2,tony,projective,0.48,4899,reveal,51,reveal,C,NA,default,28,Yes,NA,Male,English,NA,46
1966,default,block2,isabella,projective,0.48,4815,confirm,52,confirm,C,NA,default,28,Yes,NA,Male,English,NA,47
1966,default,block2,zoe,projective,0,4833,acknowledge,53,acknowledge,C,NA,default,28,Yes,NA,Male,English,NA,48
1966,default,block2,julian,projective,0.48,5380,admit,54,admit,C,NA,default,28,Yes,NA,Male,English,NA,49
1966,default,block2,hat,projective,1,3200,MC,55,MC,MC,NA,default,28,Yes,NA,Male,English,NA,50
1966,default,block2,josie,projective,0.48,6420,discover,56,discover,C,NA,default,28,Yes,NA,Male,English,NA,51
1966,default,block2,garage,projective,1,3458,MC,57,MC,MC,NA,default,28,Yes,NA,Male,English,NA,52
1973,default,block1,grace,projective,0.91,25397,see,5,see,C,NA,default,31,Yes,NA,Male,NA,NA,1
1973,default,block1,isabella,projective,0.94,12203,confess,6,confess,C,NA,default,31,Yes,NA,Male,NA,NA,2
1973,default,block1,jon,projective,0.97,14403,pretend,7,pretend,C,NA,default,31,Yes,NA,Male,NA,NA,3
1973,default,block1,emma,projective,0.79,182580,confirm,8,confirm,C,NA,default,31,Yes,NA,Male,NA,NA,4
1973,default,block1,mia,projective,0.95,6331,inform,9,inform,C,NA,default,31,Yes,NA,Male,NA,NA,5
1973,default,block1,muffins,projective,0.98,11251,MC,10,MC,MC,NA,default,31,Yes,NA,Male,NA,NA,6
1973,default,block1,owen,projective,0.97,12567,prove,11,prove,C,NA,default,31,Yes,NA,Male,NA,NA,7
1973,default,block1,josh,projective,0.97,8237,discover,12,discover,C,NA,default,31,Yes,NA,Male,NA,NA,8
1973,default,block1,tony,projective,0.96,7793,demonstrate,13,demonstrate,C,NA,default,31,Yes,NA,Male,NA,NA,9
1973,default,block1,julian,projective,0.95,7097,admit,14,admit,C,NA,default,31,Yes,NA,Male,NA,NA,10
1973,default,block1,zoe,projective,0.74,5654,know,15,know,C,NA,default,31,Yes,NA,Male,NA,NA,11
1973,default,block1,ballet,projective,0.98,17188,MC,16,MC,MC,NA,default,31,Yes,NA,Male,NA,NA,12
1973,default,block1,danny,projective,0.97,12359,hear,17,hear,C,NA,default,31,Yes,NA,Male,NA,NA,13
1973,default,block1,pizza,projective,0.93,259233,MC,18,MC,MC,NA,default,31,Yes,NA,Male,NA,NA,14
1973,default,block1,josie,projective,1,15454,acknowledge,19,acknowledge,C,NA,default,31,Yes,NA,Male,NA,NA,15
1973,default,block1,jackson,projective,0.85,9467,establish,20,establish,C,NA,default,31,Yes,NA,Male,NA,NA,16
1973,default,block1,mary,projective,0.02,12064,be_right,21,be_right,C,NA,default,31,Yes,NA,Male,NA,NA,17
1973,default,block1,frank,projective,0.97,117857,announce,22,announce,C,NA,default,31,Yes,NA,Male,NA,NA,18
1973,default,block1,kids,projective,0.95,33052,MC,23,MC,MC,NA,default,31,Yes,NA,Male,NA,NA,19
1973,default,block1,hat,projective,0.94,8036,MC,24,MC,MC,NA,default,31,Yes,NA,Male,NA,NA,20
1973,default,block1,jayden,projective,0.97,11991,be_annoyed,25,be_annoyed,C,NA,default,31,Yes,NA,Male,NA,NA,21
1973,default,block1,garage,projective,0.99,158601,MC,26,MC,MC,NA,default,31,Yes,NA,Male,NA,NA,22
1973,default,block1,emily,projective,0.44,34727,say,27,say,C,NA,default,31,Yes,NA,Male,NA,NA,23
1973,default,block1,olivia,projective,0.07,13210,suggest,28,suggest,C,NA,default,31,Yes,NA,Male,NA,NA,24
1973,default,block1,charley,projective,0.92,5416,reveal,29,reveal,C,NA,default,31,Yes,NA,Male,NA,NA,25
1973,default,block1,sophia,projective,0.88,13261,think,30,think,C,NA,default,31,Yes,NA,Male,NA,NA,26
1973,default,block2,jackson,ai,0.040000000000000036,177577,establish,32,establish,C,NA,default,31,Yes,NA,Male,NA,NA,27
1973,default,block2,isabella,ai,0.07999999999999996,22977,confess,33,confess,C,NA,default,31,Yes,NA,Male,NA,NA,28
1973,default,block2,jayden,ai,0.08999999999999997,7077,be_annoyed,34,be_annoyed,C,NA,default,31,Yes,NA,Male,NA,NA,29
1973,default,block2,frank,ai,0.13,38255,announce,35,announce,C,NA,default,31,Yes,NA,Male,NA,NA,30
1973,default,block2,josie,ai,0.35,7592,acknowledge,36,acknowledge,C,NA,default,31,Yes,NA,Male,NA,NA,31
1973,default,block2,owen,ai,0.06999999999999995,5506,prove,37,prove,C,NA,default,31,Yes,NA,Male,NA,NA,32
1973,default,block2,muffins,ai,0.06999999999999995,6940,MC,38,MC,MC,NA,default,31,Yes,NA,Male,NA,NA,33
1973,default,block2,kids,ai,0.040000000000000036,83204,MC,39,MC,MC,NA,default,31,Yes,NA,Male,NA,NA,34
1973,default,block2,mary,ai,0.96,8190,be_right,40,be_right,C,NA,default,31,Yes,NA,Male,NA,NA,35
1973,default,block2,ballet,ai,0.050000000000000044,6310,MC,41,MC,MC,NA,default,31,Yes,NA,Male,NA,NA,36
1973,default,block2,zoe,ai,0.06000000000000005,5664,know,42,know,C,NA,default,31,Yes,NA,Male,NA,NA,37
1973,default,block2,emma,ai,0.050000000000000044,180766,confirm,43,confirm,C,NA,default,31,Yes,NA,Male,NA,NA,38
1973,default,block2,emily,ai,0.050000000000000044,10960,say,44,say,C,NA,default,31,Yes,NA,Male,NA,NA,39
1973,default,block2,sophia,ai,0.97,41735,think,45,think,C,NA,default,31,Yes,NA,Male,NA,NA,40
1973,default,block2,mia,ai,0.65,7212,inform,46,inform,C,NA,default,31,Yes,NA,Male,NA,NA,41
1973,default,block2,jon,ai,0.020000000000000018,6543,pretend,47,pretend,C,NA,default,31,Yes,NA,Male,NA,NA,42
1973,default,block2,hat,ai,0.020000000000000018,5997,MC,48,MC,MC,NA,default,31,Yes,NA,Male,NA,NA,43
1973,default,block2,garage,ai,0.020000000000000018,29879,MC,49,MC,MC,NA,default,31,Yes,NA,Male,NA,NA,44
1973,default,block2,julian,ai,0.030000000000000027,5400,admit,50,admit,C,NA,default,31,Yes,NA,Male,NA,NA,45
1973,default,block2,josh,ai,0.06999999999999995,3546,discover,51,discover,C,NA,default,31,Yes,NA,Male,NA,NA,46
1973,default,block2,olivia,ai,0.26,2184,suggest,52,suggest,C,NA,default,31,Yes,NA,Male,NA,NA,47
1973,default,block2,pizza,ai,0.09999999999999998,2401,MC,53,MC,MC,NA,default,31,Yes,NA,Male,NA,NA,48
1973,default,block2,tony,ai,0.85,166483,demonstrate,54,demonstrate,C,NA,default,31,Yes,NA,Male,NA,NA,49
1973,default,block2,grace,ai,0.030000000000000027,11582,see,55,see,C,NA,default,31,Yes,NA,Male,NA,NA,50
1973,default,block2,charley,ai,0.06999999999999995,8173,reveal,56,reveal,C,NA,default,31,Yes,NA,Male,NA,NA,51
1973,default,block2,danny,ai,0.12,1551,hear,57,hear,C,NA,default,31,Yes,NA,Male,NA,NA,52
1817,default,block1,jackson,ai,0.96,15399,see,5,see,C,NA,default,67,Yes,interesting,Female,english,NA,1
1817,default,block1,jon,ai,0.98,12264,think,6,think,C,NA,default,67,Yes,interesting,Female,english,NA,2
1817,default,block1,hat,ai,0.97,7967,MC,7,MC,MC,NA,default,67,Yes,interesting,Female,english,NA,3
1817,default,block1,pizza,ai,0.21999999999999997,10561,MC,8,MC,MC,NA,default,67,Yes,interesting,Female,english,NA,4
1817,default,block1,grace,ai,0.96,8855,be_annoyed,9,be_annoyed,C,NA,default,67,Yes,interesting,Female,english,NA,5
1817,default,block1,danny,ai,0.78,19248,be_right,10,be_right,C,NA,default,67,Yes,interesting,Female,english,NA,6
1817,default,block1,josh,ai,0.97,8512,announce,11,announce,C,NA,default,67,Yes,interesting,Female,english,NA,7
1817,default,block1,emma,ai,0.87,17232,confess,12,confess,C,NA,default,67,Yes,interesting,Female,english,NA,8
1817,default,block1,mia,ai,0.76,10968,inform,13,inform,C,NA,default,67,Yes,interesting,Female,english,NA,9
1817,default,block1,josie,ai,0.6799999999999999,9920,say,14,say,C,NA,default,67,Yes,interesting,Female,english,NA,10
1817,default,block1,jayden,ai,0.78,9575,discover,15,discover,C,NA,default,67,Yes,interesting,Female,english,NA,11
1817,default,block1,julian,ai,0.6599999999999999,8007,hear,16,hear,C,NA,default,67,Yes,interesting,Female,english,NA,12
1817,default,block1,olivia,ai,0.83,8528,demonstrate,17,demonstrate,C,NA,default,67,Yes,interesting,Female,english,NA,13
1817,default,block1,tony,ai,0.5900000000000001,11256,know,18,know,C,NA,default,67,Yes,interesting,Female,english,NA,14
1817,default,block1,muffins,ai,0.43000000000000005,10464,MC,19,MC,MC,NA,default,67,Yes,interesting,Female,english,NA,15
1817,default,block1,isabella,ai,0.78,13592,pretend,20,pretend,C,NA,default,67,Yes,interesting,Female,english,NA,16
1817,default,block1,charley,ai,0.5,12224,suggest,21,suggest,C,NA,default,67,Yes,interesting,Female,english,NA,17
1817,default,block1,frank,ai,0.5700000000000001,7983,prove,22,prove,C,NA,default,67,Yes,interesting,Female,english,NA,18
1817,default,block1,garage,ai,0.29000000000000004,17928,MC,23,MC,MC,NA,default,67,Yes,interesting,Female,english,NA,19
1817,default,block1,owen,ai,0.8,10656,establish,24,establish,C,NA,default,67,Yes,interesting,Female,english,NA,20
1817,default,block1,sophia,ai,0.51,6960,admit,25,admit,C,NA,default,67,Yes,interesting,Female,english,NA,21
1817,default,block1,kids,ai,0.13,14055,MC,26,MC,MC,NA,default,67,Yes,interesting,Female,english,NA,22
1817,default,block1,mary,ai,0.42000000000000004,9873,acknowledge,27,acknowledge,C,NA,default,67,Yes,interesting,Female,english,NA,23
1817,default,block1,emily,ai,0.72,10328,confirm,28,confirm,C,NA,default,67,Yes,interesting,Female,english,NA,24
1817,default,block1,zoe,ai,0.86,6640,reveal,29,reveal,C,NA,default,67,Yes,interesting,Female,english,NA,25
1817,default,block1,ballet,ai,0.10999999999999999,9599,MC,30,MC,MC,NA,default,67,Yes,interesting,Female,english,NA,26
1817,default,block2,tony,projective,0.88,10855,know,32,know,C,NA,default,67,Yes,interesting,Female,english,NA,27
1817,default,block2,julian,projective,0.62,11776,hear,33,hear,C,NA,default,67,Yes,interesting,Female,english,NA,28
1817,default,block2,emma,projective,0.65,11880,confess,34,confess,C,NA,default,67,Yes,interesting,Female,english,NA,29
1817,default,block2,mia,projective,0.26,10640,inform,35,inform,C,NA,default,67,Yes,interesting,Female,english,NA,30
1817,default,block2,ballet,projective,0.95,6512,MC,36,MC,MC,NA,default,67,Yes,interesting,Female,english,NA,31
1817,default,block2,kids,projective,0.94,5967,MC,37,MC,MC,NA,default,67,Yes,interesting,Female,english,NA,32
1817,default,block2,josh,projective,0.35,7168,announce,38,announce,C,NA,default,67,Yes,interesting,Female,english,NA,33
1817,default,block2,jon,projective,0.05,5864,think,39,think,C,NA,default,67,Yes,interesting,Female,english,NA,34
1817,default,block2,sophia,projective,0.74,8296,admit,40,admit,C,NA,default,67,Yes,interesting,Female,english,NA,35
1817,default,block2,hat,projective,0.95,4463,MC,41,MC,MC,NA,default,67,Yes,interesting,Female,english,NA,36
1817,default,block2,emily,projective,0.17,6704,confirm,42,confirm,C,NA,default,67,Yes,interesting,Female,english,NA,37
1817,default,block2,frank,projective,0.03,5048,prove,43,prove,C,NA,default,67,Yes,interesting,Female,english,NA,38
1817,default,block2,pizza,projective,0.98,5504,MC,44,MC,MC,NA,default,67,Yes,interesting,Female,english,NA,39
1817,default,block2,muffins,projective,0.95,4592,MC,45,MC,MC,NA,default,67,Yes,interesting,Female,english,NA,40
1817,default,block2,jayden,projective,0.95,9216,discover,46,discover,C,NA,default,67,Yes,interesting,Female,english,NA,41
1817,default,block2,josie,projective,0.05,5064,say,47,say,C,NA,default,67,Yes,interesting,Female,english,NA,42
1817,default,block2,jackson,projective,0.66,7400,see,48,see,C,NA,default,67,Yes,interesting,Female,english,NA,43
1817,default,block2,zoe,projective,0.89,5864,reveal,49,reveal,C,NA,default,67,Yes,interesting,Female,english,NA,44
1817,default,block2,isabella,projective,0.02,12504,pretend,50,pretend,C,NA,default,67,Yes,interesting,Female,english,NA,45
1817,default,block2,danny,projective,0.04,6504,be_right,51,be_right,C,NA,default,67,Yes,interesting,Female,english,NA,46
1817,default,block2,owen,projective,0.06,5831,establish,52,establish,C,NA,default,67,Yes,interesting,Female,english,NA,47
1817,default,block2,olivia,projective,0.1,8767,demonstrate,53,demonstrate,C,NA,default,67,Yes,interesting,Female,english,NA,48
1817,default,block2,charley,projective,0.02,6296,suggest,54,suggest,C,NA,default,67,Yes,interesting,Female,english,NA,49
1817,default,block2,mary,projective,0.62,9792,acknowledge,55,acknowledge,C,NA,default,67,Yes,interesting,Female,english,NA,50
1817,default,block2,grace,projective,0.96,8832,be_annoyed,56,be_annoyed,C,NA,default,67,Yes,interesting,Female,english,NA,51
1817,default,block2,garage,projective,0.97,7416,MC,57,MC,MC,NA,default,67,Yes,interesting,Female,english,NA,52
1984,default,block1,olivia,projective,0.03,8419,establish,5,establish,C,NA,default,24,Yes,none,Female,english,NA,1
1984,default,block1,kids,projective,0.94,8632,MC,6,MC,MC,NA,default,24,Yes,none,Female,english,NA,2
1984,default,block1,hat,projective,0.93,5808,MC,7,MC,MC,NA,default,24,Yes,none,Female,english,NA,3
1984,default,block1,frank,projective,0.95,6873,be_annoyed,8,be_annoyed,C,NA,default,24,Yes,none,Female,english,NA,4
1984,default,block1,charley,projective,0.03,6654,say,9,say,C,NA,default,24,Yes,none,Female,english,NA,5
1984,default,block1,jon,projective,0.65,7535,think,10,think,C,NA,default,24,Yes,none,Female,english,NA,6
1984,default,block1,pizza,projective,0.97,9266,MC,11,MC,MC,NA,default,24,Yes,none,Female,english,NA,7
1984,default,block1,julian,projective,0.02,217105,confirm,12,confirm,C,NA,default,24,Yes,none,Female,english,NA,8
1984,default,block1,muffins,projective,0.96,4540,MC,13,MC,MC,NA,default,24,Yes,none,Female,english,NA,9
1984,default,block1,jackson,projective,0.53,6850,know,14,know,C,NA,default,24,Yes,none,Female,english,NA,10
1984,default,block1,sophia,projective,0.97,6560,confess,15,confess,C,NA,default,24,Yes,none,Female,english,NA,11
1984,default,block1,josie,projective,0.99,5530,see,16,see,C,NA,default,24,Yes,none,Female,english,NA,12
1984,default,block1,grace,projective,0.98,7480,admit,17,admit,C,NA,default,24,Yes,none,Female,english,NA,13
1984,default,block1,josh,projective,0.12,77253,suggest,18,suggest,C,NA,default,24,Yes,none,Female,english,NA,14
1984,default,block1,zoe,projective,0.04,5840,demonstrate,19,demonstrate,C,NA,default,24,Yes,none,Female,english,NA,15
1984,default,block1,mary,projective,0.31,5538,announce,20,announce,C,NA,default,24,Yes,none,Female,english,NA,16
1984,default,block1,garage,projective,0.86,24854,MC,21,MC,MC,NA,default,24,Yes,none,Female,english,NA,17
1984,default,block1,isabella,projective,0.1,787090,reveal,22,reveal,C,NA,default,24,Yes,none,Female,english,NA,18
1984,default,block1,ballet,projective,0.97,4935,MC,23,MC,MC,NA,default,24,Yes,none,Female,english,NA,19
1984,default,block1,danny,projective,0.14,4832,hear,24,hear,C,NA,default,24,Yes,none,Female,english,NA,20
1984,default,block1,jayden,projective,0.04,5018,discover,25,discover,C,NA,default,24,Yes,none,Female,english,NA,21
1984,default,block1,emma,projective,0.05,10229,be_right,26,be_right,C,NA,default,24,Yes,none,Female,english,NA,22
1984,default,block1,mia,projective,0.02,6182,pretend,27,pretend,C,NA,default,24,Yes,none,Female,english,NA,23
1984,default,block1,tony,projective,0.03,9136,acknowledge,28,acknowledge,C,NA,default,24,Yes,none,Female,english,NA,24
1984,default,block1,owen,projective,0.01,6190,prove,29,prove,C,NA,default,24,Yes,none,Female,english,NA,25
1984,default,block1,emily,projective,0.49,7447,inform,30,inform,C,NA,default,24,Yes,none,Female,english,NA,26
1984,default,block2,garage,ai,0.51,13961,MC,32,MC,MC,NA,default,24,Yes,none,Female,english,NA,27
1984,default,block2,grace,ai,0.92,9793,admit,33,admit,C,NA,default,24,Yes,none,Female,english,NA,28
1984,default,block2,pizza,ai,0.030000000000000027,11193,MC,34,MC,MC,NA,default,24,Yes,none,Female,english,NA,29
1984,default,block2,muffins,ai,0.06999999999999995,5226,MC,35,MC,MC,NA,default,24,Yes,none,Female,english,NA,30
1984,default,block2,danny,ai,0.9299999999999999,6397,hear,36,hear,C,NA,default,24,Yes,none,Female,english,NA,31
1984,default,block2,sophia,ai,0.96,7341,confess,37,confess,C,NA,default,24,Yes,none,Female,english,NA,32
1984,default,block2,jayden,ai,0.91,106455,discover,38,discover,C,NA,default,24,Yes,none,Female,english,NA,33
1984,default,block2,emma,ai,0.95,5413,be_right,39,be_right,C,NA,default,24,Yes,none,Female,english,NA,34
1984,default,block2,tony,ai,0.06999999999999995,4210,acknowledge,40,acknowledge,C,NA,default,24,Yes,none,Female,english,NA,35
1984,default,block2,isabella,ai,0.97,8220,reveal,41,reveal,C,NA,default,24,Yes,none,Female,english,NA,36
1984,default,block2,josh,ai,0.96,6574,suggest,42,suggest,C,NA,default,24,Yes,none,Female,english,NA,37
1984,default,block2,jon,ai,0.97,5762,think,43,think,C,NA,default,24,Yes,none,Female,english,NA,38
1984,default,block2,julian,ai,0.97,3559,confirm,44,confirm,C,NA,default,24,Yes,none,Female,english,NA,39
1984,default,block2,olivia,ai,0.92,4100,establish,45,establish,C,NA,default,24,Yes,none,Female,english,NA,40
1984,default,block2,ballet,ai,0.030000000000000027,3917,MC,46,MC,MC,NA,default,24,Yes,none,Female,english,NA,41
1984,default,block2,mia,ai,0.95,3590,pretend,47,pretend,C,NA,default,24,Yes,none,Female,english,NA,42
1984,default,block2,frank,ai,1,12013,be_annoyed,48,be_annoyed,C,NA,default,24,Yes,none,Female,english,NA,43
1984,default,block2,jackson,ai,0.97,3500,know,49,know,C,NA,default,24,Yes,none,Female,english,NA,44
1984,default,block2,hat,ai,0.030000000000000027,4729,MC,50,MC,MC,NA,default,24,Yes,none,Female,english,NA,45
1984,default,block2,josie,ai,0.98,4353,see,51,see,C,NA,default,24,Yes,none,Female,english,NA,46
1984,default,block2,kids,ai,0.030000000000000027,3980,MC,52,MC,MC,NA,default,24,Yes,none,Female,english,NA,47
1984,default,block2,mary,ai,0.99,4389,announce,53,announce,C,NA,default,24,Yes,none,Female,english,NA,48
1984,default,block2,charley,ai,0.98,2154,say,54,say,C,NA,default,24,Yes,none,Female,english,NA,49
1984,default,block2,zoe,ai,0.98,1991,demonstrate,55,demonstrate,C,NA,default,24,Yes,none,Female,english,NA,50
1984,default,block2,emily,ai,1,2273,inform,56,inform,C,NA,default,24,Yes,none,Female,english,NA,51
1984,default,block2,owen,ai,0.97,1790,prove,57,prove,C,NA,default,24,Yes,none,Female,english,NA,52
1782,default,block1,hat,projective,0.97,7863,MC,5,MC,MC,NA,default,26,Yes,NA,Female,English,NA,1
1782,default,block1,josh,projective,0.88,10000,hear,6,hear,C,NA,default,26,Yes,NA,Female,English,NA,2
1782,default,block1,grace,projective,0.14,8696,suggest,7,suggest,C,NA,default,26,Yes,NA,Female,English,NA,3
1782,default,block1,mary,projective,0.9,6304,know,8,know,C,NA,default,26,Yes,NA,Female,English,NA,4
1782,default,block1,zoe,projective,0.05,7808,announce,9,announce,C,NA,default,26,Yes,NA,Female,English,NA,5
1782,default,block1,jon,projective,0.9,7968,be_annoyed,10,be_annoyed,C,NA,default,26,Yes,NA,Female,English,NA,6
1782,default,block1,tony,projective,0.91,10656,discover,11,discover,C,NA,default,26,Yes,NA,Female,English,NA,7
1782,default,block1,olivia,projective,0.01,9439,pretend,12,pretend,C,NA,default,26,Yes,NA,Female,English,NA,8
1782,default,block1,kids,projective,0.89,7952,MC,13,MC,MC,NA,default,26,Yes,NA,Female,English,NA,9
1782,default,block1,josie,projective,0.1,7992,be_right,14,be_right,C,NA,default,26,Yes,NA,Female,English,NA,10
1782,default,block1,emily,projective,0.92,7928,see,15,see,C,NA,default,26,Yes,NA,Female,English,NA,11
1782,default,block1,isabella,projective,0.03,9919,confess,16,confess,C,NA,default,26,Yes,NA,Female,English,NA,12
1782,default,block1,jackson,projective,0.07,4608,confirm,17,confirm,C,NA,default,26,Yes,NA,Female,English,NA,13
1782,default,block1,jayden,projective,0.18,4856,reveal,18,reveal,C,NA,default,26,Yes,NA,Female,English,NA,14
1782,default,block1,julian,projective,0.44,11392,think,19,think,C,NA,default,26,Yes,NA,Female,English,NA,15
1782,default,block1,owen,projective,0.22,10000,admit,20,admit,C,NA,default,26,Yes,NA,Female,English,NA,16
1782,default,block1,danny,projective,0.14,8535,demonstrate,21,demonstrate,C,NA,default,26,Yes,NA,Female,English,NA,17
1782,default,block1,pizza,projective,0.88,6161,MC,22,MC,MC,NA,default,26,Yes,NA,Female,English,NA,18
1782,default,block1,sophia,projective,0.89,6975,inform,23,inform,C,NA,default,26,Yes,NA,Female,English,NA,19
1782,default,block1,charley,projective,0.12,8320,prove,24,prove,C,NA,default,26,Yes,NA,Female,English,NA,20
1782,default,block1,muffins,projective,0.94,7752,MC,25,MC,MC,NA,default,26,Yes,NA,Female,English,NA,21
1782,default,block1,emma,projective,0.12,8048,acknowledge,26,acknowledge,C,NA,default,26,Yes,NA,Female,English,NA,22
1782,default,block1,frank,projective,0.15,6944,say,27,say,C,NA,default,26,Yes,NA,Female,English,NA,23
1782,default,block1,ballet,projective,0.87,5128,MC,28,MC,MC,NA,default,26,Yes,NA,Female,English,NA,24
1782,default,block1,garage,projective,0.94,6744,MC,29,MC,MC,NA,default,26,Yes,NA,Female,English,NA,25
1782,default,block1,mia,projective,0.2,7464,establish,30,establish,C,NA,default,26,Yes,NA,Female,English,NA,26
1782,default,block2,zoe,ai,0.35,10016,announce,32,announce,C,NA,default,26,Yes,NA,Female,English,NA,27
1782,default,block2,josh,ai,0.71,7273,hear,33,hear,C,NA,default,26,Yes,NA,Female,English,NA,28
1782,default,block2,kids,ai,0.17000000000000004,7824,MC,34,MC,MC,NA,default,26,Yes,NA,Female,English,NA,29
1782,default,block2,frank,ai,0.6799999999999999,5248,say,35,say,C,NA,default,26,Yes,NA,Female,English,NA,30
1782,default,block2,isabella,ai,0.33999999999999997,7792,confess,36,confess,C,NA,default,26,Yes,NA,Female,English,NA,31
1782,default,block2,muffins,ai,0.89,5400,MC,37,MC,MC,NA,default,26,Yes,NA,Female,English,NA,32
1782,default,block2,owen,ai,0.13,5216,admit,38,admit,C,NA,default,26,Yes,NA,Female,English,NA,33
1782,default,block2,emily,ai,0.27,5095,see,39,see,C,NA,default,26,Yes,NA,Female,English,NA,34
1782,default,block2,jackson,ai,0.32999999999999996,5240,confirm,40,confirm,C,NA,default,26,Yes,NA,Female,English,NA,35
1782,default,block2,garage,ai,0.6699999999999999,9184,MC,41,MC,MC,NA,default,26,Yes,NA,Female,English,NA,36
1782,default,block2,olivia,ai,0.69,6031,pretend,42,pretend,C,NA,default,26,Yes,NA,Female,English,NA,37
1782,default,block2,jayden,ai,0.27,4800,reveal,43,reveal,C,NA,default,26,Yes,NA,Female,English,NA,38
1782,default,block2,mary,ai,0.26,6168,know,44,know,C,NA,default,26,Yes,NA,Female,English,NA,39
1782,default,block2,pizza,ai,0.77,7656,MC,45,MC,MC,NA,default,26,Yes,NA,Female,English,NA,40
1782,default,block2,josie,ai,0.27,8704,be_right,46,be_right,C,NA,default,26,Yes,NA,Female,English,NA,41
1782,default,block2,ballet,ai,0.85,6752,MC,47,MC,MC,NA,default,26,Yes,NA,Female,English,NA,42
1782,default,block2,tony,ai,0.28,6200,discover,48,discover,C,NA,default,26,Yes,NA,Female,English,NA,43
1782,default,block2,charley,ai,0.32999999999999996,6280,prove,49,prove,C,NA,default,26,Yes,NA,Female,English,NA,44
1782,default,block2,grace,ai,0.28,5128,suggest,50,suggest,C,NA,default,26,Yes,NA,Female,English,NA,45
1782,default,block2,hat,ai,0.63,5840,MC,51,MC,MC,NA,default,26,Yes,NA,Female,English,NA,46
1782,default,block2,sophia,ai,0.31999999999999995,6008,inform,52,inform,C,NA,default,26,Yes,NA,Female,English,NA,47
1782,default,block2,jon,ai,0.84,5104,be_annoyed,53,be_annoyed,C,NA,default,26,Yes,NA,Female,English,NA,48
1782,default,block2,julian,ai,0.39,9176,think,54,think,C,NA,default,26,Yes,NA,Female,English,NA,49
1782,default,block2,mia,ai,0.33999999999999997,6864,establish,55,establish,C,NA,default,26,Yes,NA,Female,English,NA,50
1782,default,block2,danny,ai,0.56,7296,demonstrate,56,demonstrate,C,NA,default,26,Yes,NA,Female,English,NA,51
1782,default,block2,emma,ai,0.18999999999999995,8328,acknowledge,57,acknowledge,C,NA,default,26,Yes,NA,Female,English,NA,52
1727,default,block1,olivia,projective,0.99,10354,see,5,see,C,NA,default,30,Yes,NA,Female,English,NA,1
1727,default,block1,jayden,projective,1,8782,be_annoyed,6,be_annoyed,C,NA,default,30,Yes,NA,Female,English,NA,2
1727,default,block1,muffins,projective,0.98,5120,MC,7,MC,MC,NA,default,30,Yes,NA,Female,English,NA,3
1727,default,block1,emma,projective,0.22,19147,establish,8,establish,C,NA,default,30,Yes,NA,Female,English,NA,4
1727,default,block1,jackson,projective,0.02,12315,be_right,9,be_right,C,NA,default,30,Yes,NA,Female,English,NA,5
1727,default,block1,josh,projective,0.99,22762,hear,10,hear,C,NA,default,30,Yes,NA,Female,English,NA,6
1727,default,block1,sophia,projective,0.25,10157,suggest,11,suggest,C,NA,default,30,Yes,NA,Female,English,NA,7
1727,default,block1,julian,projective,0.34,10759,confess,12,confess,C,NA,default,30,Yes,NA,Female,English,NA,8
1727,default,block1,kids,projective,0.97,8764,MC,13,MC,MC,NA,default,30,Yes,NA,Female,English,NA,9
1727,default,block1,grace,projective,0.69,19828,inform,14,inform,C,NA,default,30,Yes,NA,Female,English,NA,10
1727,default,block1,emily,projective,0.29,12556,announce,15,announce,C,NA,default,30,Yes,NA,Female,English,NA,11
1727,default,block1,jon,projective,0,7027,think,16,think,C,NA,default,30,Yes,NA,Female,English,NA,12
1727,default,block1,tony,projective,0.46,7375,admit,17,admit,C,NA,default,30,Yes,NA,Female,English,NA,13
1727,default,block1,owen,projective,0.72,7960,acknowledge,18,acknowledge,C,NA,default,30,Yes,NA,Female,English,NA,14
1727,default,block1,isabella,projective,0.51,7968,demonstrate,19,demonstrate,C,NA,default,30,Yes,NA,Female,English,NA,15
1727,default,block1,zoe,projective,0.28,8203,reveal,20,reveal,C,NA,default,30,Yes,NA,Female,English,NA,16
1727,default,block1,mia,projective,1,11999,know,21,know,C,NA,default,30,Yes,NA,Female,English,NA,17
1727,default,block1,danny,projective,0.18,7576,prove,22,prove,C,NA,default,30,Yes,NA,Female,English,NA,18
1727,default,block1,hat,projective,1,4346,MC,23,MC,MC,NA,default,30,Yes,NA,Female,English,NA,19
1727,default,block1,pizza,projective,1,6290,MC,24,MC,MC,NA,default,30,Yes,NA,Female,English,NA,20
1727,default,block1,ballet,projective,1,7049,MC,25,MC,MC,NA,default,30,Yes,NA,Female,English,NA,21
1727,default,block1,frank,projective,0,7544,discover,26,discover,C,NA,default,30,Yes,NA,Female,English,NA,22
1727,default,block1,charley,projective,0.32,7323,confirm,27,confirm,C,NA,default,30,Yes,NA,Female,English,NA,23
1727,default,block1,mary,projective,0,6722,say,28,say,C,NA,default,30,Yes,NA,Female,English,NA,24
1727,default,block1,garage,projective,1,5402,MC,29,MC,MC,NA,default,30,Yes,NA,Female,English,NA,25
1727,default,block1,josie,projective,0.99,6602,pretend,30,pretend,C,NA,default,30,Yes,NA,Female,English,NA,26
1727,default,block2,julian,ai,0.31000000000000005,15429,confess,32,confess,C,NA,default,30,Yes,NA,Female,English,NA,27
1727,default,block2,owen,ai,0.31999999999999995,9328,acknowledge,33,acknowledge,C,NA,default,30,Yes,NA,Female,English,NA,28
1727,default,block2,mia,ai,0.63,11598,know,34,know,C,NA,default,30,Yes,NA,Female,English,NA,29
1727,default,block2,charley,ai,0,4373,confirm,35,confirm,C,NA,default,30,Yes,NA,Female,English,NA,30
1727,default,block2,isabella,ai,0.31999999999999995,8118,demonstrate,36,demonstrate,C,NA,default,30,Yes,NA,Female,English,NA,31
1727,default,block2,jayden,ai,0.99,6402,be_annoyed,37,be_annoyed,C,NA,default,30,Yes,NA,Female,English,NA,32
1727,default,block2,emily,ai,0.18000000000000005,6183,announce,38,announce,C,NA,default,30,Yes,NA,Female,English,NA,33
1727,default,block2,grace,ai,0.29000000000000004,6619,inform,39,inform,C,NA,default,30,Yes,NA,Female,English,NA,34
1727,default,block2,hat,ai,0,5346,MC,40,MC,MC,NA,default,30,Yes,NA,Female,English,NA,35
1727,default,block2,zoe,ai,0.89,6619,reveal,41,reveal,C,NA,default,30,Yes,NA,Female,English,NA,36
1727,default,block2,ballet,ai,0,3968,MC,42,MC,MC,NA,default,30,Yes,NA,Female,English,NA,37
1727,default,block2,josie,ai,0.65,6734,pretend,43,pretend,C,NA,default,30,Yes,NA,Female,English,NA,38
1727,default,block2,jon,ai,0.5900000000000001,5007,think,44,think,C,NA,default,30,Yes,NA,Female,English,NA,39
1727,default,block2,olivia,ai,0.78,7316,see,45,see,C,NA,default,30,Yes,NA,Female,English,NA,40
1727,default,block2,sophia,ai,0.83,4805,suggest,46,suggest,C,NA,default,30,Yes,NA,Female,English,NA,41
1727,default,block2,jackson,ai,0.8,5250,be_right,47,be_right,C,NA,default,30,Yes,NA,Female,English,NA,42
1727,default,block2,garage,ai,0,4019,MC,48,MC,MC,NA,default,30,Yes,NA,Female,English,NA,43
1727,default,block2,mary,ai,0.85,6068,say,49,say,C,NA,default,30,Yes,NA,Female,English,NA,44
1727,default,block2,kids,ai,0,16554,MC,50,MC,MC,NA,default,30,Yes,NA,Female,English,NA,45
1727,default,block2,josh,ai,0.36,6383,hear,51,hear,C,NA,default,30,Yes,NA,Female,English,NA,46
1727,default,block2,danny,ai,0.37,6430,prove,52,prove,C,NA,default,30,Yes,NA,Female,English,NA,47
1727,default,block2,muffins,ai,0,4179,MC,53,MC,MC,NA,default,30,Yes,NA,Female,English,NA,48
1727,default,block2,frank,ai,0.39,9084,discover,54,discover,C,NA,default,30,Yes,NA,Female,English,NA,49
1727,default,block2,pizza,ai,0,5034,MC,55,MC,MC,NA,default,30,Yes,NA,Female,English,NA,50
1727,default,block2,emma,ai,0.65,7161,establish,56,establish,C,NA,default,30,Yes,NA,Female,English,NA,51
1727,default,block2,tony,ai,0.37,6737,admit,57,admit,C,NA,default,30,Yes,NA,Female,English,NA,52
1845,default,block1,zoe,projective,0.99,7447,acknowledge,5,acknowledge,C,NA,default,28,Yes,NA,Female,English,NA,1
1845,default,block1,owen,projective,0.97,7800,inform,6,inform,C,NA,default,28,Yes,NA,Female,English,NA,2
1845,default,block1,garage,projective,0.98,5488,MC,7,MC,MC,NA,default,28,Yes,NA,Female,English,NA,3
1845,default,block1,isabella,projective,0.12,13433,think,8,think,C,NA,default,28,Yes,NA,Female,English,NA,4
1845,default,block1,josie,projective,0.93,6159,reveal,9,reveal,C,NA,default,28,Yes,NA,Female,English,NA,5
1845,default,block1,jon,projective,0.89,5361,demonstrate,10,demonstrate,C,NA,default,28,Yes,NA,Female,English,NA,6
1845,default,block1,josh,projective,0.88,21320,confess,11,confess,C,NA,default,28,Yes,NA,Female,English,NA,7
1845,default,block1,mia,projective,0.95,4736,admit,12,admit,C,NA,default,28,Yes,NA,Female,English,NA,8
1845,default,block1,olivia,projective,0.97,3799,hear,13,hear,C,NA,default,28,Yes,NA,Female,English,NA,9
1845,default,block1,pizza,projective,0.97,4632,MC,14,MC,MC,NA,default,28,Yes,NA,Female,English,NA,10
1845,default,block1,julian,projective,0.95,4088,be_annoyed,15,be_annoyed,C,NA,default,28,Yes,NA,Female,English,NA,11
1845,default,block1,frank,projective,0.05,5984,be_right,16,be_right,C,NA,default,28,Yes,NA,Female,English,NA,12
1845,default,block1,emily,projective,0.19,8096,suggest,17,suggest,C,NA,default,28,Yes,NA,Female,English,NA,13
1845,default,block1,mary,projective,0.2,4232,pretend,18,pretend,C,NA,default,28,Yes,NA,Female,English,NA,14
1845,default,block1,charley,projective,0.22,4751,confirm,19,confirm,C,NA,default,28,Yes,NA,Female,English,NA,15
1845,default,block1,tony,projective,0.94,4297,know,20,know,C,NA,default,28,Yes,NA,Female,English,NA,16
1845,default,block1,grace,projective,0.84,4271,say,21,say,C,NA,default,28,Yes,NA,Female,English,NA,17
1845,default,block1,jackson,projective,0.86,2887,establish,22,establish,C,NA,default,28,Yes,NA,Female,English,NA,18
1845,default,block1,emma,projective,0.3,17071,prove,23,prove,C,NA,default,28,Yes,NA,Female,English,NA,19
1845,default,block1,kids,projective,0.96,3577,MC,24,MC,MC,NA,default,28,Yes,NA,Female,English,NA,20
1845,default,block1,danny,projective,0.7,4959,announce,25,announce,C,NA,default,28,Yes,NA,Female,English,NA,21
1845,default,block1,sophia,projective,0.97,3296,discover,26,discover,C,NA,default,28,Yes,NA,Female,English,NA,22
1845,default,block1,jayden,projective,0.88,3032,see,27,see,C,NA,default,28,Yes,NA,Female,English,NA,23
1845,default,block1,ballet,projective,0.98,2951,MC,28,MC,MC,NA,default,28,Yes,NA,Female,English,NA,24
1845,default,block1,hat,projective,0.96,3081,MC,29,MC,MC,NA,default,28,Yes,NA,Female,English,NA,25
1845,default,block1,muffins,projective,0.93,5263,MC,30,MC,MC,NA,default,28,Yes,NA,Female,English,NA,26
1845,default,block2,tony,ai,0.13,4343,know,32,know,C,NA,default,28,Yes,NA,Female,English,NA,27
1845,default,block2,muffins,ai,0.19999999999999996,12240,MC,33,MC,MC,NA,default,28,Yes,NA,Female,English,NA,28
1845,default,block2,hat,ai,0.27,3368,MC,34,MC,MC,NA,default,28,Yes,NA,Female,English,NA,29
1845,default,block2,grace,ai,0.17000000000000004,2904,say,35,say,C,NA,default,28,Yes,NA,Female,English,NA,30
1845,default,block2,julian,ai,0.86,6328,be_annoyed,36,be_annoyed,C,NA,default,28,Yes,NA,Female,English,NA,31
1845,default,block2,zoe,ai,0.24,4600,acknowledge,37,acknowledge,C,NA,default,28,Yes,NA,Female,English,NA,32
1845,default,block2,sophia,ai,0.22999999999999998,5128,discover,38,discover,C,NA,default,28,Yes,NA,Female,English,NA,33
1845,default,block2,jackson,ai,0.28,4249,establish,39,establish,C,NA,default,28,Yes,NA,Female,English,NA,34
1845,default,block2,josie,ai,0.19999999999999996,10175,reveal,40,reveal,C,NA,default,28,Yes,NA,Female,English,NA,35
1845,default,block2,mia,ai,0.18999999999999995,5176,admit,41,admit,C,NA,default,28,Yes,NA,Female,English,NA,36
1845,default,block2,frank,ai,0.88,3672,be_right,42,be_right,C,NA,default,28,Yes,NA,Female,English,NA,37
1845,default,block2,charley,ai,0.51,4600,confirm,43,confirm,C,NA,default,28,Yes,NA,Female,English,NA,38
1845,default,block2,kids,ai,0.10999999999999999,3480,MC,44,MC,MC,NA,default,28,Yes,NA,Female,English,NA,39
1845,default,block2,emily,ai,0.27,3864,suggest,45,suggest,C,NA,default,28,Yes,NA,Female,English,NA,40
1845,default,block2,ballet,ai,0.18000000000000005,4841,MC,46,MC,MC,NA,default,28,Yes,NA,Female,English,NA,41
1845,default,block2,mary,ai,0.5,11528,pretend,47,pretend,C,NA,default,28,Yes,NA,Female,English,NA,42
1845,default,block2,danny,ai,0.19999999999999996,5248,announce,48,announce,C,NA,default,28,Yes,NA,Female,English,NA,43
1845,default,block2,garage,ai,0.06000000000000005,5392,MC,49,MC,MC,NA,default,28,Yes,NA,Female,English,NA,44
1845,default,block2,josh,ai,0.28,5192,confess,50,confess,C,NA,default,28,Yes,NA,Female,English,NA,45
1845,default,block2,isabella,ai,0.8,5600,think,51,think,C,NA,default,28,Yes,NA,Female,English,NA,46
1845,default,block2,pizza,ai,0.050000000000000044,3752,MC,52,MC,MC,NA,default,28,Yes,NA,Female,English,NA,47
1845,default,block2,olivia,ai,0.13,2936,hear,53,hear,C,NA,default,28,Yes,NA,Female,English,NA,48
1845,default,block2,jon,ai,0.16000000000000003,7912,demonstrate,54,demonstrate,C,NA,default,28,Yes,NA,Female,English,NA,49
1845,default,block2,jayden,ai,0.18000000000000005,4592,see,55,see,C,NA,default,28,Yes,NA,Female,English,NA,50
1845,default,block2,emma,ai,0.51,5936,prove,56,prove,C,NA,default,28,Yes,NA,Female,English,NA,51
1845,default,block2,owen,ai,0.28,5264,inform,57,inform,C,NA,default,28,Yes,NA,Female,English,NA,52
1988,default,block1,mia,projective,0.32,20616,admit,5,admit,C,NA,default,28,Yes,no comments,Female,English,NA,1
1988,default,block1,ballet,projective,1,4728,MC,6,MC,MC,NA,default,28,Yes,no comments,Female,English,NA,2
1988,default,block1,emily,projective,0.8,34967,pretend,7,pretend,C,NA,default,28,Yes,no comments,Female,English,NA,3
1988,default,block1,isabella,projective,0.28,9216,confirm,8,confirm,C,NA,default,28,Yes,no comments,Female,English,NA,4
1988,default,block1,jon,projective,0.86,6943,see,9,see,C,NA,default,28,Yes,no comments,Female,English,NA,5
1988,default,block1,pizza,projective,1,3264,MC,10,MC,MC,NA,default,28,Yes,no comments,Female,English,NA,6
1988,default,block1,mary,projective,0.72,6576,confess,11,confess,C,NA,default,28,Yes,no comments,Female,English,NA,7
1988,default,block1,julian,projective,0.32,5712,reveal,12,reveal,C,NA,default,28,Yes,no comments,Female,English,NA,8
1988,default,block1,charley,projective,1,10344,inform,13,inform,C,NA,default,28,Yes,no comments,Female,English,NA,9
1988,default,block1,tony,projective,1,4424,announce,14,announce,C,NA,default,28,Yes,no comments,Female,English,NA,10
1988,default,block1,owen,projective,0.52,6432,say,15,say,C,NA,default,28,Yes,no comments,Female,English,NA,11
1988,default,block1,muffins,projective,1,3024,MC,16,MC,MC,NA,default,28,Yes,no comments,Female,English,NA,12
1988,default,block1,grace,projective,1,5856,hear,17,hear,C,NA,default,28,Yes,no comments,Female,English,NA,13
1988,default,block1,garage,projective,1,16392,MC,18,MC,MC,NA,default,28,Yes,no comments,Female,English,NA,14
1988,default,block1,jackson,projective,0.38,6920,think,19,think,C,NA,default,28,Yes,no comments,Female,English,NA,15
1988,default,block1,jayden,projective,1,8560,be_annoyed,20,be_annoyed,C,NA,default,28,Yes,no comments,Female,English,NA,16
1988,default,block1,josh,projective,0.39,36856,establish,21,establish,C,NA,default,28,Yes,no comments,Female,English,NA,17
1988,default,block1,sophia,projective,1,4360,discover,22,discover,C,NA,default,28,Yes,no comments,Female,English,NA,18
1988,default,block1,danny,projective,0.12,8616,suggest,23,suggest,C,NA,default,28,Yes,no comments,Female,English,NA,19
1988,default,block1,zoe,projective,0.87,7832,acknowledge,24,acknowledge,C,NA,default,28,Yes,no comments,Female,English,NA,20
1988,default,block1,hat,projective,1,3120,MC,25,MC,MC,NA,default,28,Yes,no comments,Female,English,NA,21
1988,default,block1,josie,projective,1,5135,know,26,know,C,NA,default,28,Yes,no comments,Female,English,NA,22
1988,default,block1,kids,projective,1,4248,MC,27,MC,MC,NA,default,28,Yes,no comments,Female,English,NA,23
1988,default,block1,olivia,projective,0,8912,be_right,28,be_right,C,NA,default,28,Yes,no comments,Female,English,NA,24
1988,default,block1,emma,projective,0,6168,prove,29,prove,C,NA,default,28,Yes,no comments,Female,English,NA,25
1988,default,block1,frank,projective,0.1,4696,demonstrate,30,demonstrate,C,NA,default,28,Yes,no comments,Female,English,NA,26
1988,default,block2,mary,ai,0.71,7471,confess,32,confess,C,NA,default,28,Yes,no comments,Female,English,NA,27
1988,default,block2,pizza,ai,0.36,5928,MC,33,MC,MC,NA,default,28,Yes,no comments,Female,English,NA,28
1988,default,block2,ballet,ai,0.21999999999999997,6080,MC,34,MC,MC,NA,default,28,Yes,no comments,Female,English,NA,29
1988,default,block2,jon,ai,0.41000000000000003,4760,see,35,see,C,NA,default,28,Yes,no comments,Female,English,NA,30
1988,default,block2,tony,ai,0.61,16428,announce,36,announce,C,NA,default,28,Yes,no comments,Female,English,NA,31
1988,default,block2,josh,ai,0.33999999999999997,9256,establish,37,establish,C,NA,default,28,Yes,no comments,Female,English,NA,32
1988,default,block2,grace,ai,0.25,5392,hear,38,hear,C,NA,default,28,Yes,no comments,Female,English,NA,33
1988,default,block2,jackson,ai,0.21999999999999997,6936,think,39,think,C,NA,default,28,Yes,no comments,Female,English,NA,34
1988,default,block2,garage,ai,0.030000000000000027,5216,MC,40,MC,MC,NA,default,28,Yes,no comments,Female,English,NA,35
1988,default,block2,zoe,ai,0.24,3152,acknowledge,41,acknowledge,C,NA,default,28,Yes,no comments,Female,English,NA,36
1988,default,block2,frank,ai,0.63,4136,demonstrate,42,demonstrate,C,NA,default,28,Yes,no comments,Female,English,NA,37
1988,default,block2,isabella,ai,0.33999999999999997,3880,confirm,43,confirm,C,NA,default,28,Yes,no comments,Female,English,NA,38
1988,default,block2,danny,ai,0.31000000000000005,9224,suggest,44,suggest,C,NA,default,28,Yes,no comments,Female,English,NA,39
1988,default,block2,mia,ai,0.31000000000000005,8216,admit,45,admit,C,NA,default,28,Yes,no comments,Female,English,NA,40
1988,default,block2,kids,ai,0,70668,MC,46,MC,MC,NA,default,28,Yes,no comments,Female,English,NA,41
1988,default,block2,julian,ai,0.15000000000000002,4864,reveal,47,reveal,C,NA,default,28,Yes,no comments,Female,English,NA,42
1988,default,block2,jayden,ai,0,641705,be_annoyed,48,be_annoyed,C,NA,default,28,Yes,no comments,Female,English,NA,43
1988,default,block2,sophia,ai,0,3280,discover,49,discover,C,NA,default,28,Yes,no comments,Female,English,NA,44
1988,default,block2,emily,ai,0.36,4056,pretend,50,pretend,C,NA,default,28,Yes,no comments,Female,English,NA,45
1988,default,block2,charley,ai,0,5120,inform,51,inform,C,NA,default,28,Yes,no comments,Female,English,NA,46
1988,default,block2,emma,ai,0.74,4688,prove,52,prove,C,NA,default,28,Yes,no comments,Female,English,NA,47
1988,default,block2,hat,ai,0,2688,MC,53,MC,MC,NA,default,28,Yes,no comments,Female,English,NA,48
1988,default,block2,josie,ai,0,3679,know,54,know,C,NA,default,28,Yes,no comments,Female,English,NA,49
1988,default,block2,muffins,ai,0,2681,MC,55,MC,MC,NA,default,28,Yes,no comments,Female,English,NA,50
1988,default,block2,olivia,ai,0.87,7360,be_right,56,be_right,C,NA,default,28,Yes,no comments,Female,English,NA,51
1988,default,block2,owen,ai,0.71,8128,say,57,say,C,NA,default,28,Yes,no comments,Female,English,NA,52
1841,default,block1,garage,ai,0.32999999999999996,9862,MC,5,MC,MC,NA,default,28,Yes,NA,Female,English,NA,1
1841,default,block1,olivia,ai,0.92,5789,be_right,6,be_right,C,NA,default,28,Yes,NA,Female,English,NA,2
1841,default,block1,kids,ai,0.28,5900,MC,7,MC,MC,NA,default,28,Yes,NA,Female,English,NA,3
1841,default,block1,jon,ai,0.44999999999999996,4393,reveal,8,reveal,C,NA,default,28,Yes,NA,Female,English,NA,4
1841,default,block1,grace,ai,0.42000000000000004,3688,say,9,say,C,NA,default,28,Yes,NA,Female,English,NA,5
1841,default,block1,jackson,ai,0.8,3770,think,10,think,C,NA,default,28,Yes,NA,Female,English,NA,6
1841,default,block1,danny,ai,0.5900000000000001,5756,demonstrate,11,demonstrate,C,NA,default,28,Yes,NA,Female,English,NA,7
1841,default,block1,owen,ai,0.73,8843,acknowledge,12,acknowledge,C,NA,default,28,Yes,NA,Female,English,NA,8
1841,default,block1,jayden,ai,0.92,4082,be_annoyed,13,be_annoyed,C,NA,default,28,Yes,NA,Female,English,NA,9
1841,default,block1,josh,ai,0.69,5107,prove,14,prove,C,NA,default,28,Yes,NA,Female,English,NA,10
1841,default,block1,ballet,ai,0.06999999999999995,3579,MC,15,MC,MC,NA,default,28,Yes,NA,Female,English,NA,11
1841,default,block1,mary,ai,0.6,4481,establish,16,establish,C,NA,default,28,Yes,NA,Female,English,NA,12
1841,default,block1,emma,ai,0.8200000000000001,7988,admit,17,admit,C,NA,default,28,Yes,NA,Female,English,NA,13
1841,default,block1,charley,ai,0.24,3914,suggest,18,suggest,C,NA,default,28,Yes,NA,Female,English,NA,14
1841,default,block1,pizza,ai,0.010000000000000009,4636,MC,19,MC,MC,NA,default,28,Yes,NA,Female,English,NA,15
1841,default,block1,zoe,ai,0.5700000000000001,5251,see,20,see,C,NA,default,28,Yes,NA,Female,English,NA,16
1841,default,block1,hat,ai,0.5,3401,MC,21,MC,MC,NA,default,28,Yes,NA,Female,English,NA,17
1841,default,block1,mia,ai,0.77,5743,announce,22,announce,C,NA,default,28,Yes,NA,Female,English,NA,18
1841,default,block1,muffins,ai,0.08999999999999997,3164,MC,23,MC,MC,NA,default,28,Yes,NA,Female,English,NA,19
1841,default,block1,frank,ai,0.54,7202,confess,24,confess,C,NA,default,28,Yes,NA,Female,English,NA,20
1841,default,block1,tony,ai,0.65,4214,discover,25,discover,C,NA,default,28,Yes,NA,Female,English,NA,21
1841,default,block1,julian,ai,0.19999999999999996,3520,hear,26,hear,C,NA,default,28,Yes,NA,Female,English,NA,22
1841,default,block1,sophia,ai,0.83,3669,pretend,27,pretend,C,NA,default,28,Yes,NA,Female,English,NA,23
1841,default,block1,isabella,ai,0.52,5649,inform,28,inform,C,NA,default,28,Yes,NA,Female,English,NA,24
1841,default,block1,emily,ai,0.24,5335,know,29,know,C,NA,default,28,Yes,NA,Female,English,NA,25
1841,default,block1,josie,ai,0.19999999999999996,5351,confirm,30,confirm,C,NA,default,28,Yes,NA,Female,English,NA,26
1841,default,block2,sophia,projective,0.15,8603,pretend,32,pretend,C,NA,default,28,Yes,NA,Female,English,NA,27
1841,default,block2,muffins,projective,1,4439,MC,33,MC,MC,NA,default,28,Yes,NA,Female,English,NA,28
1841,default,block2,mia,projective,0.13,3506,announce,34,announce,C,NA,default,28,Yes,NA,Female,English,NA,29
1841,default,block2,charley,projective,0.04,2922,suggest,35,suggest,C,NA,default,28,Yes,NA,Female,English,NA,30
1841,default,block2,isabella,projective,0.55,5413,inform,36,inform,C,NA,default,28,Yes,NA,Female,English,NA,31
1841,default,block2,zoe,projective,0.68,3477,see,37,see,C,NA,default,28,Yes,NA,Female,English,NA,32
1841,default,block2,tony,projective,0.79,3370,discover,38,discover,C,NA,default,28,Yes,NA,Female,English,NA,33
1841,default,block2,jackson,projective,0.06,2880,think,39,think,C,NA,default,28,Yes,NA,Female,English,NA,34
1841,default,block2,jayden,projective,0.9,7303,be_annoyed,40,be_annoyed,C,NA,default,28,Yes,NA,Female,English,NA,35
1841,default,block2,ballet,projective,0.99,2678,MC,41,MC,MC,NA,default,28,Yes,NA,Female,English,NA,36
1841,default,block2,olivia,projective,0.08,4876,be_right,42,be_right,C,NA,default,28,Yes,NA,Female,English,NA,37
1841,default,block2,emma,projective,0.06,3424,admit,43,admit,C,NA,default,28,Yes,NA,Female,English,NA,38
1841,default,block2,jon,projective,0.05,3178,reveal,44,reveal,C,NA,default,28,Yes,NA,Female,English,NA,39
1841,default,block2,kids,projective,1,3381,MC,45,MC,MC,NA,default,28,Yes,NA,Female,English,NA,40
1841,default,block2,mary,projective,0.07,2599,establish,46,establish,C,NA,default,28,Yes,NA,Female,English,NA,41
1841,default,block2,josie,projective,0.38,6390,confirm,47,confirm,C,NA,default,28,Yes,NA,Female,English,NA,42
1841,default,block2,julian,projective,0.64,2504,hear,48,hear,C,NA,default,28,Yes,NA,Female,English,NA,43
1841,default,block2,frank,projective,0.08,2989,confess,49,confess,C,NA,default,28,Yes,NA,Female,English,NA,44
1841,default,block2,hat,projective,0.98,2238,MC,50,MC,MC,NA,default,28,Yes,NA,Female,English,NA,45
1841,default,block2,pizza,projective,1,2580,MC,51,MC,MC,NA,default,28,Yes,NA,Female,English,NA,46
1841,default,block2,owen,projective,0.44,2183,acknowledge,52,acknowledge,C,NA,default,28,Yes,NA,Female,English,NA,47
1841,default,block2,emily,projective,0.67,4383,know,53,know,C,NA,default,28,Yes,NA,Female,English,NA,48
1841,default,block2,grace,projective,0.08,3145,say,54,say,C,NA,default,28,Yes,NA,Female,English,NA,49
1841,default,block2,josh,projective,0.15,3833,prove,55,prove,C,NA,default,28,Yes,NA,Female,English,NA,50
1841,default,block2,danny,projective,0.03,2880,demonstrate,56,demonstrate,C,NA,default,28,Yes,NA,Female,English,NA,51
1841,default,block2,garage,projective,0.97,2179,MC,57,MC,MC,NA,default,28,Yes,NA,Female,English,NA,52
1799,default,block1,jon,projective,0,5350,suggest,5,suggest,C,NA,default,18,Yes,NA,Male,English,NA,1
1799,default,block1,hat,projective,1,2703,MC,6,MC,MC,NA,default,18,Yes,NA,Male,English,NA,2
1799,default,block1,charley,projective,0.88,4912,inform,7,inform,C,NA,default,18,Yes,NA,Male,English,NA,3
1799,default,block1,emily,projective,0.05,3144,think,8,think,C,NA,default,18,Yes,NA,Male,English,NA,4
1799,default,block1,sophia,projective,0.02,4320,establish,9,establish,C,NA,default,18,Yes,NA,Male,English,NA,5
1799,default,block1,mary,projective,0,9520,be_right,10,be_right,C,NA,default,18,Yes,NA,Male,English,NA,6
1799,default,block1,josie,projective,1,4472,reveal,11,reveal,C,NA,default,18,Yes,NA,Male,English,NA,7
1799,default,block1,owen,projective,1,2448,confirm,12,confirm,C,NA,default,18,Yes,NA,Male,English,NA,8
1799,default,block1,kids,projective,0.96,2423,MC,13,MC,MC,NA,default,18,Yes,NA,Male,English,NA,9
1799,default,block1,emma,projective,0.04,6703,discover,14,discover,C,NA,default,18,Yes,NA,Male,English,NA,10
1799,default,block1,muffins,projective,0.96,2440,MC,15,MC,MC,NA,default,18,Yes,NA,Male,English,NA,11
1799,default,block1,ballet,projective,0.98,2192,MC,16,MC,MC,NA,default,18,Yes,NA,Male,English,NA,12
1799,default,block1,jackson,projective,0.77,2936,acknowledge,17,acknowledge,C,NA,default,18,Yes,NA,Male,English,NA,13
1799,default,block1,grace,projective,1,3167,hear,18,hear,C,NA,default,18,Yes,NA,Male,English,NA,14
1799,default,block1,tony,projective,0.75,2999,admit,19,admit,C,NA,default,18,Yes,NA,Male,English,NA,15
1799,default,block1,isabella,projective,0.3,6712,demonstrate,20,demonstrate,C,NA,default,18,Yes,NA,Male,English,NA,16
1799,default,block1,garage,projective,0.97,2217,MC,21,MC,MC,NA,default,18,Yes,NA,Male,English,NA,17
1799,default,block1,frank,projective,0.82,3655,see,22,see,C,NA,default,18,Yes,NA,Male,English,NA,18
1799,default,block1,pizza,projective,1,2471,MC,23,MC,MC,NA,default,18,Yes,NA,Male,English,NA,19
1799,default,block1,danny,projective,0.03,4376,pretend,24,pretend,C,NA,default,18,Yes,NA,Male,English,NA,20
1799,default,block1,jayden,projective,0.71,5368,announce,25,announce,C,NA,default,18,Yes,NA,Male,English,NA,21
1799,default,block1,olivia,projective,1,3577,confess,26,confess,C,NA,default,18,Yes,NA,Male,English,NA,22
1799,default,block1,julian,projective,1,3175,be_annoyed,27,be_annoyed,C,NA,default,18,Yes,NA,Male,English,NA,23
1799,default,block1,josh,projective,0.49,3097,say,28,say,C,NA,default,18,Yes,NA,Male,English,NA,24
1799,default,block1,mia,projective,0.05,6551,prove,29,prove,C,NA,default,18,Yes,NA,Male,English,NA,25
1799,default,block1,zoe,projective,1,2856,know,30,know,C,NA,default,18,Yes,NA,Male,English,NA,26
1799,default,block2,tony,ai,0.20999999999999996,4960,admit,32,admit,C,NA,default,18,Yes,NA,Male,English,NA,27
1799,default,block2,julian,ai,0.7,16118,be_annoyed,33,be_annoyed,C,NA,default,18,Yes,NA,Male,English,NA,28
1799,default,block2,mary,ai,0.64,8080,be_right,34,be_right,C,NA,default,18,Yes,NA,Male,English,NA,29
1799,default,block2,jackson,ai,0,6408,acknowledge,35,acknowledge,C,NA,default,18,Yes,NA,Male,English,NA,30
1799,default,block2,danny,ai,0.30000000000000004,5728,pretend,36,pretend,C,NA,default,18,Yes,NA,Male,English,NA,31
1799,default,block2,olivia,ai,0.07999999999999996,2111,confess,37,confess,C,NA,default,18,Yes,NA,Male,English,NA,32
1799,default,block2,ballet,ai,0.010000000000000009,1984,MC,38,MC,MC,NA,default,18,Yes,NA,Male,English,NA,33
1799,default,block2,pizza,ai,0.040000000000000036,1744,MC,39,MC,MC,NA,default,18,Yes,NA,Male,English,NA,34
1799,default,block2,kids,ai,0.010000000000000009,1936,MC,40,MC,MC,NA,default,18,Yes,NA,Male,English,NA,35
1799,default,block2,owen,ai,0.040000000000000036,2848,confirm,41,confirm,C,NA,default,18,Yes,NA,Male,English,NA,36
1799,default,block2,jayden,ai,0.07999999999999996,1464,announce,42,announce,C,NA,default,18,Yes,NA,Male,English,NA,37
1799,default,block2,isabella,ai,0.050000000000000044,2753,demonstrate,43,demonstrate,C,NA,default,18,Yes,NA,Male,English,NA,38
1799,default,block2,jon,ai,0.06999999999999995,3463,suggest,44,suggest,C,NA,default,18,Yes,NA,Male,English,NA,39
1799,default,block2,frank,ai,0.050000000000000044,1760,see,45,see,C,NA,default,18,Yes,NA,Male,English,NA,40
1799,default,block2,charley,ai,0.12,2376,inform,46,inform,C,NA,default,18,Yes,NA,Male,English,NA,41
1799,default,block2,hat,ai,0.06999999999999995,1961,MC,47,MC,MC,NA,default,18,Yes,NA,Male,English,NA,42
1799,default,block2,grace,ai,0.020000000000000018,1959,hear,48,hear,C,NA,default,18,Yes,NA,Male,English,NA,43
1799,default,block2,sophia,ai,0.08999999999999997,2376,establish,49,establish,C,NA,default,18,Yes,NA,Male,English,NA,44
1799,default,block2,emily,ai,0.020000000000000018,1904,think,50,think,C,NA,default,18,Yes,NA,Male,English,NA,45
1799,default,block2,muffins,ai,0.06000000000000005,2144,MC,51,MC,MC,NA,default,18,Yes,NA,Male,English,NA,46
1799,default,block2,josie,ai,0.08999999999999997,1976,reveal,52,reveal,C,NA,default,18,Yes,NA,Male,English,NA,47
1799,default,block2,josh,ai,0.050000000000000044,2784,say,53,say,C,NA,default,18,Yes,NA,Male,English,NA,48
1799,default,block2,emma,ai,0.15000000000000002,3984,discover,54,discover,C,NA,default,18,Yes,NA,Male,English,NA,49
1799,default,block2,mia,ai,0.09999999999999998,1664,prove,55,prove,C,NA,default,18,Yes,NA,Male,English,NA,50
1799,default,block2,zoe,ai,0.040000000000000036,1752,know,56,know,C,NA,default,18,Yes,NA,Male,English,NA,51
1799,default,block2,garage,ai,0.06000000000000005,1495,MC,57,MC,MC,NA,default,18,Yes,NA,Male,English,NA,52
1823,default,block1,emily,projective,1,11927,be_annoyed,5,be_annoyed,C,NA,default,32,Yes,NA,Female,English,NA,1
1823,default,block1,owen,projective,1,6300,acknowledge,6,acknowledge,C,NA,default,32,Yes,NA,Female,English,NA,2
1823,default,block1,emma,projective,0.4,8369,demonstrate,7,demonstrate,C,NA,default,32,Yes,NA,Female,English,NA,3
1823,default,block1,jon,projective,0.16,7900,prove,8,prove,C,NA,default,32,Yes,NA,Female,English,NA,4
1823,default,block1,kids,projective,1,9016,MC,9,MC,MC,NA,default,32,Yes,NA,Female,English,NA,5
1823,default,block1,olivia,projective,0.83,6294,inform,10,inform,C,NA,default,32,Yes,NA,Female,English,NA,6
1823,default,block1,mia,projective,0.62,5855,say,11,say,C,NA,default,32,Yes,NA,Female,English,NA,7
1823,default,block1,charley,projective,0.35,4381,establish,12,establish,C,NA,default,32,Yes,NA,Female,English,NA,8
1823,default,block1,zoe,projective,1,4154,know,13,know,C,NA,default,32,Yes,NA,Female,English,NA,9
1823,default,block1,grace,projective,0.69,8504,confess,14,confess,C,NA,default,32,Yes,NA,Female,English,NA,10
1823,default,block1,sophia,projective,0,6077,be_right,15,be_right,C,NA,default,32,Yes,NA,Female,English,NA,11
1823,default,block1,garage,projective,1,4676,MC,16,MC,MC,NA,default,32,Yes,NA,Female,English,NA,12
1823,default,block1,danny,projective,0.89,5465,admit,17,admit,C,NA,default,32,Yes,NA,Female,English,NA,13
1823,default,block1,julian,projective,0.62,6442,hear,18,hear,C,NA,default,32,Yes,NA,Female,English,NA,14
1823,default,block1,jayden,projective,1,4111,think,19,think,C,NA,default,32,Yes,NA,Female,English,NA,15
1823,default,block1,jackson,projective,1,2484,see,20,see,C,NA,default,32,Yes,NA,Female,English,NA,16
1823,default,block1,hat,projective,1,5731,MC,21,MC,MC,NA,default,32,Yes,NA,Female,English,NA,17
1823,default,block1,isabella,projective,0.49,2978,confirm,22,confirm,C,NA,default,32,Yes,NA,Female,English,NA,18
1823,default,block1,ballet,projective,1,3144,MC,23,MC,MC,NA,default,32,Yes,NA,Female,English,NA,19
1823,default,block1,mary,projective,0.71,2781,reveal,24,reveal,C,NA,default,32,Yes,NA,Female,English,NA,20
1823,default,block1,pizza,projective,1,3934,MC,25,MC,MC,NA,default,32,Yes,NA,Female,English,NA,21
1823,default,block1,tony,projective,0.03,9064,pretend,26,pretend,C,NA,default,32,Yes,NA,Female,English,NA,22
1823,default,block1,frank,projective,0.45,4591,suggest,27,suggest,C,NA,default,32,Yes,NA,Female,English,NA,23
1823,default,block1,josie,projective,0.93,5369,announce,28,announce,C,NA,default,32,Yes,NA,Female,English,NA,24
1823,default,block1,josh,projective,1,4298,discover,29,discover,C,NA,default,32,Yes,NA,Female,English,NA,25
1823,default,block1,muffins,projective,1,5163,MC,30,MC,MC,NA,default,32,Yes,NA,Female,English,NA,26
1823,default,block2,owen,ai,0.37,12027,acknowledge,32,acknowledge,C,NA,default,32,Yes,NA,Female,English,NA,27
1823,default,block2,kids,ai,0,4958,MC,33,MC,MC,NA,default,32,Yes,NA,Female,English,NA,28
1823,default,block2,mary,ai,0,3528,reveal,34,reveal,C,NA,default,32,Yes,NA,Female,English,NA,29
1823,default,block2,danny,ai,0.07999999999999996,5033,admit,35,admit,C,NA,default,32,Yes,NA,Female,English,NA,30
1823,default,block2,zoe,ai,0.12,5104,know,36,know,C,NA,default,32,Yes,NA,Female,English,NA,31
1823,default,block2,sophia,ai,0.65,4503,be_right,37,be_right,C,NA,default,32,Yes,NA,Female,English,NA,32
1823,default,block2,ballet,ai,0,3555,MC,38,MC,MC,NA,default,32,Yes,NA,Female,English,NA,33
1823,default,block2,grace,ai,0.20999999999999996,3333,confess,39,confess,C,NA,default,32,Yes,NA,Female,English,NA,34
1823,default,block2,emma,ai,0.44999999999999996,10165,demonstrate,40,demonstrate,C,NA,default,32,Yes,NA,Female,English,NA,35
1823,default,block2,jayden,ai,0.5,4584,think,41,think,C,NA,default,32,Yes,NA,Female,English,NA,36
1823,default,block2,olivia,ai,0.25,6652,inform,42,inform,C,NA,default,32,Yes,NA,Female,English,NA,37
1823,default,block2,muffins,ai,0,6510,MC,43,MC,MC,NA,default,32,Yes,NA,Female,English,NA,38
1823,default,block2,josie,ai,0.18999999999999995,4596,announce,44,announce,C,NA,default,32,Yes,NA,Female,English,NA,39
1823,default,block2,emily,ai,0.5,6067,be_annoyed,45,be_annoyed,C,NA,default,32,Yes,NA,Female,English,NA,40
1823,default,block2,garage,ai,0,3349,MC,46,MC,MC,NA,default,32,Yes,NA,Female,English,NA,41
1823,default,block2,charley,ai,0.7,9969,establish,47,establish,C,NA,default,32,Yes,NA,Female,English,NA,42
1823,default,block2,josh,ai,0.21999999999999997,3638,discover,48,discover,C,NA,default,32,Yes,NA,Female,English,NA,43
1823,default,block2,mia,ai,0.56,2949,say,49,say,C,NA,default,32,Yes,NA,Female,English,NA,44
1823,default,block2,tony,ai,0.74,8980,pretend,50,pretend,C,NA,default,32,Yes,NA,Female,English,NA,45
1823,default,block2,frank,ai,0.47,4617,suggest,51,suggest,C,NA,default,32,Yes,NA,Female,English,NA,46
1823,default,block2,jackson,ai,0.27,2837,see,52,see,C,NA,default,32,Yes,NA,Female,English,NA,47
1823,default,block2,pizza,ai,0,3506,MC,53,MC,MC,NA,default,32,Yes,NA,Female,English,NA,48
1823,default,block2,julian,ai,0.22999999999999998,6546,hear,54,hear,C,NA,default,32,Yes,NA,Female,English,NA,49
1823,default,block2,isabella,ai,0.44999999999999996,3495,confirm,55,confirm,C,NA,default,32,Yes,NA,Female,English,NA,50
1823,default,block2,hat,ai,0,8788,MC,56,MC,MC,NA,default,32,Yes,NA,Female,English,NA,51
1823,default,block2,jon,ai,0.53,2822,prove,57,prove,C,NA,default,32,Yes,NA,Female,English,NA,52
1921,default,block1,grace,ai,0.74,14543,hear,5,hear,C,NA,default,26,Yes,NA,Female,ENGLISH,NA,1
1921,default,block1,frank,ai,0.78,6095,demonstrate,6,demonstrate,C,NA,default,26,Yes,NA,Female,ENGLISH,NA,2
1921,default,block1,isabella,ai,0.8,7598,announce,7,announce,C,NA,default,26,Yes,NA,Female,ENGLISH,NA,3
1921,default,block1,jayden,ai,0.8,8662,acknowledge,8,acknowledge,C,NA,default,26,Yes,NA,Female,ENGLISH,NA,4
1921,default,block1,jackson,ai,0.63,6466,reveal,9,reveal,C,NA,default,26,Yes,NA,Female,ENGLISH,NA,5
1921,default,block1,garage,ai,0.63,6752,MC,10,MC,MC,NA,default,26,Yes,NA,Female,ENGLISH,NA,6
1921,default,block1,danny,ai,0.65,6462,confess,11,confess,C,NA,default,26,Yes,NA,Female,ENGLISH,NA,7
1921,default,block1,julian,ai,0.81,3707,inform,12,inform,C,NA,default,26,Yes,NA,Female,ENGLISH,NA,8
1921,default,block1,kids,ai,0.8,3052,MC,13,MC,MC,NA,default,26,Yes,NA,Female,ENGLISH,NA,9
1921,default,block1,mia,ai,0.74,3317,establish,14,establish,C,NA,default,26,Yes,NA,Female,ENGLISH,NA,10
1921,default,block1,pizza,ai,0.15000000000000002,8966,MC,15,MC,MC,NA,default,26,Yes,NA,Female,ENGLISH,NA,11
1921,default,block1,mary,ai,0.77,6070,think,16,think,C,NA,default,26,Yes,NA,Female,ENGLISH,NA,12
1921,default,block1,emily,ai,0.78,10289,be_right,17,be_right,C,NA,default,26,Yes,NA,Female,ENGLISH,NA,13
1921,default,block1,josie,ai,0.56,6415,confirm,18,confirm,C,NA,default,26,Yes,NA,Female,ENGLISH,NA,14
1921,default,block1,muffins,ai,0.09999999999999998,5732,MC,19,MC,MC,NA,default,26,Yes,NA,Female,ENGLISH,NA,15
1921,default,block1,owen,ai,0.75,5732,prove,20,prove,C,NA,default,26,Yes,NA,Female,ENGLISH,NA,16
1921,default,block1,sophia,ai,0.76,4884,suggest,21,suggest,C,NA,default,26,Yes,NA,Female,ENGLISH,NA,17
1921,default,block1,ballet,ai,0.16000000000000003,5182,MC,22,MC,MC,NA,default,26,Yes,NA,Female,ENGLISH,NA,18
1921,default,block1,jon,ai,0.79,5834,pretend,23,pretend,C,NA,default,26,Yes,NA,Female,ENGLISH,NA,19
1921,default,block1,zoe,ai,0.41000000000000003,7374,know,24,know,C,NA,default,26,Yes,NA,Female,ENGLISH,NA,20
1921,default,block1,emma,ai,0.72,5510,discover,25,discover,C,NA,default,26,Yes,NA,Female,ENGLISH,NA,21
1921,default,block1,charley,ai,0.75,6898,see,26,see,C,NA,default,26,Yes,NA,Female,ENGLISH,NA,22
1921,default,block1,hat,ai,0.16000000000000003,5432,MC,27,MC,MC,NA,default,26,Yes,NA,Female,ENGLISH,NA,23
1921,default,block1,josh,ai,0.75,4532,admit,28,admit,C,NA,default,26,Yes,NA,Female,ENGLISH,NA,24
1921,default,block1,olivia,ai,0.7,5150,say,29,say,C,NA,default,26,Yes,NA,Female,ENGLISH,NA,25
1921,default,block1,tony,ai,0.8200000000000001,4274,be_annoyed,30,be_annoyed,C,NA,default,26,Yes,NA,Female,ENGLISH,NA,26
1921,default,block2,josie,projective,0.13,15753,confirm,32,confirm,C,NA,default,26,Yes,NA,Female,ENGLISH,NA,27
1921,default,block2,kids,projective,0.96,6859,MC,33,MC,MC,NA,default,26,Yes,NA,Female,ENGLISH,NA,28
1921,default,block2,emma,projective,0.29,7064,discover,34,discover,C,NA,default,26,Yes,NA,Female,ENGLISH,NA,29
1921,default,block2,jayden,projective,0.2,5171,acknowledge,35,acknowledge,C,NA,default,26,Yes,NA,Female,ENGLISH,NA,30
1921,default,block2,isabella,projective,0.23,3857,announce,36,announce,C,NA,default,26,Yes,NA,Female,ENGLISH,NA,31
1921,default,block2,danny,projective,0.18,3437,confess,37,confess,C,NA,default,26,Yes,NA,Female,ENGLISH,NA,32
1921,default,block2,mia,projective,0.16,5073,establish,38,establish,C,NA,default,26,Yes,NA,Female,ENGLISH,NA,33
1921,default,block2,charley,projective,0.2,3321,see,39,see,C,NA,default,26,Yes,NA,Female,ENGLISH,NA,34
1921,default,block2,jackson,projective,0.19,5065,reveal,40,reveal,C,NA,default,26,Yes,NA,Female,ENGLISH,NA,35
1921,default,block2,josh,projective,0.18,3558,admit,41,admit,C,NA,default,26,Yes,NA,Female,ENGLISH,NA,36
1921,default,block2,muffins,projective,0.84,4826,MC,42,MC,MC,NA,default,26,Yes,NA,Female,ENGLISH,NA,37
1921,default,block2,zoe,projective,0.18,3878,know,43,know,C,NA,default,26,Yes,NA,Female,ENGLISH,NA,38
1921,default,block2,hat,projective,0.96,3882,MC,44,MC,MC,NA,default,26,Yes,NA,Female,ENGLISH,NA,39
1921,default,block2,mary,projective,0.2,3872,think,45,think,C,NA,default,26,Yes,NA,Female,ENGLISH,NA,40
1921,default,block2,frank,projective,0.17,3272,demonstrate,46,demonstrate,C,NA,default,26,Yes,NA,Female,ENGLISH,NA,41
1921,default,block2,grace,projective,0.14,2752,hear,47,hear,C,NA,default,26,Yes,NA,Female,ENGLISH,NA,42
1921,default,block2,jon,projective,0.24,5882,pretend,48,pretend,C,NA,default,26,Yes,NA,Female,ENGLISH,NA,43
1921,default,block2,owen,projective,0.2,58622,prove,49,prove,C,NA,default,26,Yes,NA,Female,ENGLISH,NA,44
1921,default,block2,sophia,projective,0.2,3176,suggest,50,suggest,C,NA,default,26,Yes,NA,Female,ENGLISH,NA,45
1921,default,block2,pizza,projective,0.97,25859,MC,51,MC,MC,NA,default,26,Yes,NA,Female,ENGLISH,NA,46
1921,default,block2,tony,projective,0.5,9582,be_annoyed,52,be_annoyed,C,NA,default,26,Yes,NA,Female,ENGLISH,NA,47
1921,default,block2,olivia,projective,0.24,3930,say,53,say,C,NA,default,26,Yes,NA,Female,ENGLISH,NA,48
1921,default,block2,emily,projective,0.22,4824,be_right,54,be_right,C,NA,default,26,Yes,NA,Female,ENGLISH,NA,49
1921,default,block2,garage,projective,0.97,3904,MC,55,MC,MC,NA,default,26,Yes,NA,Female,ENGLISH,NA,50
1921,default,block2,ballet,projective,0.96,2602,MC,56,MC,MC,NA,default,26,Yes,NA,Female,ENGLISH,NA,51
1921,default,block2,julian,projective,0.44,5962,inform,57,inform,C,NA,default,26,Yes,NA,Female,ENGLISH,NA,52
1725,default,block1,emma,projective,0.88,24985,admit,5,admit,C,NA,default,20,Yes,NA,Female,English,NA,1
1725,default,block1,muffins,projective,1,7217,MC,6,MC,MC,NA,default,20,Yes,NA,Female,English,NA,2
1725,default,block1,hat,projective,1,6407,MC,7,MC,MC,NA,default,20,Yes,NA,Female,English,NA,3
1725,default,block1,mia,projective,1,4412,hear,8,hear,C,NA,default,20,Yes,NA,Female,English,NA,4
1725,default,block1,sophia,projective,1,5079,demonstrate,9,demonstrate,C,NA,default,20,Yes,NA,Female,English,NA,5
1725,default,block1,ballet,projective,1,6248,MC,10,MC,MC,NA,default,20,Yes,NA,Female,English,NA,6
1725,default,block1,jon,projective,0.73,13174,pretend,11,pretend,C,NA,default,20,Yes,NA,Female,English,NA,7
1725,default,block1,julian,projective,1,12273,inform,12,inform,C,NA,default,20,Yes,NA,Female,English,NA,8
1725,default,block1,grace,projective,0.98,5067,announce,13,announce,C,NA,default,20,Yes,NA,Female,English,NA,9
1725,default,block1,frank,projective,0.99,3435,acknowledge,14,acknowledge,C,NA,default,20,Yes,NA,Female,English,NA,10
1725,default,block1,jayden,projective,0.46,16011,prove,15,prove,C,NA,default,20,Yes,NA,Female,English,NA,11
1725,default,block1,garage,projective,0.95,9418,MC,16,MC,MC,NA,default,20,Yes,NA,Female,English,NA,12
1725,default,block1,josh,projective,0.94,6338,see,17,see,C,NA,default,20,Yes,NA,Female,English,NA,13
1725,default,block1,emily,projective,0.82,12199,say,18,say,C,NA,default,20,Yes,NA,Female,English,NA,14
1725,default,block1,pizza,projective,1,5033,MC,19,MC,MC,NA,default,20,Yes,NA,Female,English,NA,15
1725,default,block1,zoe,projective,0.43,10479,establish,20,establish,C,NA,default,20,Yes,NA,Female,English,NA,16
1725,default,block1,owen,projective,0.73,17170,confess,21,confess,C,NA,default,20,Yes,NA,Female,English,NA,17
1725,default,block1,josie,projective,0.45,11470,suggest,22,suggest,C,NA,default,20,Yes,NA,Female,English,NA,18
1725,default,block1,kids,projective,0.98,8336,MC,23,MC,MC,NA,default,20,Yes,NA,Female,English,NA,19
1725,default,block1,jackson,projective,0.72,8952,think,24,think,C,NA,default,20,Yes,NA,Female,English,NA,20
1725,default,block1,mary,projective,0.76,12598,be_annoyed,25,be_annoyed,C,NA,default,20,Yes,NA,Female,English,NA,21
1725,default,block1,danny,projective,0.87,8745,reveal,26,reveal,C,NA,default,20,Yes,NA,Female,English,NA,22
1725,default,block1,tony,projective,0.69,13315,confirm,27,confirm,C,NA,default,20,Yes,NA,Female,English,NA,23
1725,default,block1,olivia,projective,0.99,10662,discover,28,discover,C,NA,default,20,Yes,NA,Female,English,NA,24
1725,default,block1,isabella,projective,0.73,6792,know,29,know,C,NA,default,20,Yes,NA,Female,English,NA,25
1725,default,block1,charley,projective,0.16,16200,be_right,30,be_right,C,NA,default,20,Yes,NA,Female,English,NA,26
1725,default,block2,ballet,ai,0.06000000000000005,27606,MC,32,MC,MC,NA,default,20,Yes,NA,Female,English,NA,27
1725,default,block2,emma,ai,0.17000000000000004,10635,admit,33,admit,C,NA,default,20,Yes,NA,Female,English,NA,28
1725,default,block2,zoe,ai,0.24,10623,establish,34,establish,C,NA,default,20,Yes,NA,Female,English,NA,29
1725,default,block2,danny,ai,0.25,26660,reveal,35,reveal,C,NA,default,20,Yes,NA,Female,English,NA,30
1725,default,block2,jackson,ai,0.21999999999999997,2971,think,36,think,C,NA,default,20,Yes,NA,Female,English,NA,31
1725,default,block2,josh,ai,0.17000000000000004,2232,see,37,see,C,NA,default,20,Yes,NA,Female,English,NA,32
1725,default,block2,kids,ai,0.30000000000000004,60134,MC,38,MC,MC,NA,default,20,Yes,NA,Female,English,NA,33
1725,default,block2,hat,ai,0.47,5474,MC,39,MC,MC,NA,default,20,Yes,NA,Female,English,NA,34
1725,default,block2,olivia,ai,0.21999999999999997,4356,discover,40,discover,C,NA,default,20,Yes,NA,Female,English,NA,35
1725,default,block2,mia,ai,0.20999999999999996,5758,hear,41,hear,C,NA,default,20,Yes,NA,Female,English,NA,36
1725,default,block2,muffins,ai,0.020000000000000018,3392,MC,42,MC,MC,NA,default,20,Yes,NA,Female,English,NA,37
1725,default,block2,garage,ai,0.19999999999999996,3614,MC,43,MC,MC,NA,default,20,Yes,NA,Female,English,NA,38
1725,default,block2,jon,ai,0.040000000000000036,10077,pretend,44,pretend,C,NA,default,20,Yes,NA,Female,English,NA,39
1725,default,block2,charley,ai,0.48,6183,be_right,45,be_right,C,NA,default,20,Yes,NA,Female,English,NA,40
1725,default,block2,owen,ai,0.35,16433,confess,46,confess,C,NA,default,20,Yes,NA,Female,English,NA,41
1725,default,block2,pizza,ai,0.010000000000000009,7712,MC,47,MC,MC,NA,default,20,Yes,NA,Female,English,NA,42
1725,default,block2,jayden,ai,0.31000000000000005,5305,prove,48,prove,C,NA,default,20,Yes,NA,Female,English,NA,43
1725,default,block2,frank,ai,0.36,4520,acknowledge,49,acknowledge,C,NA,default,20,Yes,NA,Female,English,NA,44
1725,default,block2,josie,ai,0.37,8492,suggest,50,suggest,C,NA,default,20,Yes,NA,Female,English,NA,45
1725,default,block2,mary,ai,0.28,9205,be_annoyed,51,be_annoyed,C,NA,default,20,Yes,NA,Female,English,NA,46
1725,default,block2,sophia,ai,0.18000000000000005,5116,demonstrate,52,demonstrate,C,NA,default,20,Yes,NA,Female,English,NA,47
1725,default,block2,julian,ai,0.17000000000000004,3531,inform,53,inform,C,NA,default,20,Yes,NA,Female,English,NA,48
1725,default,block2,emily,ai,0.010000000000000009,11032,say,54,say,C,NA,default,20,Yes,NA,Female,English,NA,49
1725,default,block2,grace,ai,0.09999999999999998,7366,announce,55,announce,C,NA,default,20,Yes,NA,Female,English,NA,50
1725,default,block2,tony,ai,0.10999999999999999,6762,confirm,56,confirm,C,NA,default,20,Yes,NA,Female,English,NA,51
1725,default,block2,isabella,ai,0.020000000000000018,5496,know,57,know,C,NA,default,20,Yes,NA,Female,English,NA,52
1962,default,block1,isabella,projective,0.03,14023,see,5,see,C,NA,default,24,Yes,NA,Female,English,NA,1
1962,default,block1,emma,projective,0.31,15975,be_right,6,be_right,C,NA,default,24,Yes,NA,Female,English,NA,2
1962,default,block1,emily,projective,0.62,9295,pretend,7,pretend,C,NA,default,24,Yes,NA,Female,English,NA,3
1962,default,block1,zoe,projective,0.22,18468,admit,8,admit,C,NA,default,24,Yes,NA,Female,English,NA,4
1962,default,block1,julian,projective,0.18,12559,discover,9,discover,C,NA,default,24,Yes,NA,Female,English,NA,5
1962,default,block1,olivia,projective,0.85,6814,be_annoyed,10,be_annoyed,C,NA,default,24,Yes,NA,Female,English,NA,6
1962,default,block1,josh,projective,0.25,7149,announce,11,announce,C,NA,default,24,Yes,NA,Female,English,NA,7
1962,default,block1,hat,projective,0.94,14540,MC,12,MC,MC,NA,default,24,Yes,NA,Female,English,NA,8
1962,default,block1,garage,projective,0.99,8248,MC,13,MC,MC,NA,default,24,Yes,NA,Female,English,NA,9
1962,default,block1,kids,projective,0.95,8403,MC,14,MC,MC,NA,default,24,Yes,NA,Female,English,NA,10
1962,default,block1,mia,projective,0.03,10382,confirm,15,confirm,C,NA,default,24,Yes,NA,Female,English,NA,11
1962,default,block1,frank,projective,0.94,8052,know,16,know,C,NA,default,24,Yes,NA,Female,English,NA,12
1962,default,block1,ballet,projective,0.99,5208,MC,17,MC,MC,NA,default,24,Yes,NA,Female,English,NA,13
1962,default,block1,jackson,projective,0.85,3979,hear,18,hear,C,NA,default,24,Yes,NA,Female,English,NA,14
1962,default,block1,jayden,projective,0.17,8110,reveal,19,reveal,C,NA,default,24,Yes,NA,Female,English,NA,15
1962,default,block1,muffins,projective,0.97,5529,MC,20,MC,MC,NA,default,24,Yes,NA,Female,English,NA,16
1962,default,block1,danny,projective,0.91,6268,inform,21,inform,C,NA,default,24,Yes,NA,Female,English,NA,17
1962,default,block1,owen,projective,0.37,7336,suggest,22,suggest,C,NA,default,24,Yes,NA,Female,English,NA,18
1962,default,block1,grace,projective,0.6,7522,confess,23,confess,C,NA,default,24,Yes,NA,Female,English,NA,19
1962,default,block1,charley,projective,0.58,7052,establish,24,establish,C,NA,default,24,Yes,NA,Female,English,NA,20
1962,default,block1,pizza,projective,0.94,6798,MC,25,MC,MC,NA,default,24,Yes,NA,Female,English,NA,21
1962,default,block1,tony,projective,0.22,5839,demonstrate,26,demonstrate,C,NA,default,24,Yes,NA,Female,English,NA,22
1962,default,block1,mary,projective,0.42,12523,say,27,say,C,NA,default,24,Yes,NA,Female,English,NA,23
1962,default,block1,jon,projective,0.11,8373,prove,28,prove,C,NA,default,24,Yes,NA,Female,English,NA,24
1962,default,block1,sophia,projective,0.88,11205,acknowledge,29,acknowledge,C,NA,default,24,Yes,NA,Female,English,NA,25
1962,default,block1,josie,projective,0.42,9030,think,30,think,C,NA,default,24,Yes,NA,Female,English,NA,26
1962,default,block2,hat,ai,0.36,8544,MC,32,MC,MC,NA,default,24,Yes,NA,Female,English,NA,27
1962,default,block2,kids,ai,0.37,7947,MC,33,MC,MC,NA,default,24,Yes,NA,Female,English,NA,28
1962,default,block2,mia,ai,0.7,16895,confirm,34,confirm,C,NA,default,24,Yes,NA,Female,English,NA,29
1962,default,block2,charley,ai,0.6799999999999999,5988,establish,35,establish,C,NA,default,24,Yes,NA,Female,English,NA,30
1962,default,block2,danny,ai,0.37,6619,inform,36,inform,C,NA,default,24,Yes,NA,Female,English,NA,31
1962,default,block2,emma,ai,0.75,12406,be_right,37,be_right,C,NA,default,24,Yes,NA,Female,English,NA,32
1962,default,block2,frank,ai,0.33999999999999997,4441,know,38,know,C,NA,default,24,Yes,NA,Female,English,NA,33
1962,default,block2,julian,ai,0.43999999999999995,5412,discover,39,discover,C,NA,default,24,Yes,NA,Female,English,NA,34
1962,default,block2,mary,ai,0.62,5260,say,40,say,C,NA,default,24,Yes,NA,Female,English,NA,35
1962,default,block2,josh,ai,0.6,9173,announce,41,announce,C,NA,default,24,Yes,NA,Female,English,NA,36
1962,default,block2,jon,ai,0.72,4276,prove,42,prove,C,NA,default,24,Yes,NA,Female,English,NA,37
1962,default,block2,owen,ai,0.5700000000000001,9817,suggest,43,suggest,C,NA,default,24,Yes,NA,Female,English,NA,38
1962,default,block2,grace,ai,0.32999999999999996,4697,confess,44,confess,C,NA,default,24,Yes,NA,Female,English,NA,39
1962,default,block2,garage,ai,0.13,3216,MC,45,MC,MC,NA,default,24,Yes,NA,Female,English,NA,40
1962,default,block2,emily,ai,0.31999999999999995,6120,pretend,46,pretend,C,NA,default,24,Yes,NA,Female,English,NA,41
1962,default,block2,olivia,ai,0.74,15196,be_annoyed,47,be_annoyed,C,NA,default,24,Yes,NA,Female,English,NA,42
1962,default,block2,tony,ai,0.76,5644,demonstrate,48,demonstrate,C,NA,default,24,Yes,NA,Female,English,NA,43
1962,default,block2,jackson,ai,0.72,2771,hear,49,hear,C,NA,default,24,Yes,NA,Female,English,NA,44
1962,default,block2,isabella,ai,0.5800000000000001,6491,see,50,see,C,NA,default,24,Yes,NA,Female,English,NA,45
1962,default,block2,pizza,ai,0.16000000000000003,3412,MC,51,MC,MC,NA,default,24,Yes,NA,Female,English,NA,46
1962,default,block2,jayden,ai,0.7,3860,reveal,52,reveal,C,NA,default,24,Yes,NA,Female,English,NA,47
1962,default,block2,zoe,ai,0.5800000000000001,8690,admit,53,admit,C,NA,default,24,Yes,NA,Female,English,NA,48
1962,default,block2,josie,ai,0.75,3264,think,54,think,C,NA,default,24,Yes,NA,Female,English,NA,49
1962,default,block2,sophia,ai,0.63,4471,acknowledge,55,acknowledge,C,NA,default,24,Yes,NA,Female,English,NA,50
1962,default,block2,ballet,ai,0.06999999999999995,2244,MC,56,MC,MC,NA,default,24,Yes,NA,Female,English,NA,51
1962,default,block2,muffins,ai,0.12,3641,MC,57,MC,MC,NA,default,24,Yes,NA,Female,English,NA,52
1857,default,block1,frank,ai,0.88,15264,be_annoyed,5,be_annoyed,C,NA,default,38,Yes,NA,Male,English,NA,1
1857,default,block1,jayden,ai,0.9,14783,acknowledge,6,acknowledge,C,NA,default,38,Yes,NA,Male,English,NA,2
1857,default,block1,mary,ai,0.87,10916,admit,7,admit,C,NA,default,38,Yes,NA,Male,English,NA,3
1857,default,block1,mia,ai,0.24,13718,prove,8,prove,C,NA,default,38,Yes,NA,Male,English,NA,4
1857,default,block1,emma,ai,0.45999999999999996,21527,think,9,think,C,NA,default,38,Yes,NA,Male,English,NA,5
1857,default,block1,danny,ai,0.18999999999999995,10552,announce,10,announce,C,NA,default,38,Yes,NA,Male,English,NA,6
1857,default,block1,jackson,ai,0.10999999999999999,7422,see,11,see,C,NA,default,38,Yes,NA,Male,English,NA,7
1857,default,block1,owen,ai,0.26,6812,say,12,say,C,NA,default,38,Yes,NA,Male,English,NA,8
1857,default,block1,hat,ai,0.13,11376,MC,13,MC,MC,NA,default,38,Yes,NA,Male,English,NA,9
1857,default,block1,olivia,ai,0.12,6369,hear,14,hear,C,NA,default,38,Yes,NA,Male,English,NA,10
1857,default,block1,jon,ai,0.06000000000000005,8133,inform,15,inform,C,NA,default,38,Yes,NA,Male,English,NA,11
1857,default,block1,emily,ai,0.29000000000000004,8243,demonstrate,16,demonstrate,C,NA,default,38,Yes,NA,Male,English,NA,12
1857,default,block1,josie,ai,0.97,12882,be_right,17,be_right,C,NA,default,38,Yes,NA,Male,English,NA,13
1857,default,block1,ballet,ai,0.050000000000000044,5546,MC,18,MC,MC,NA,default,38,Yes,NA,Male,English,NA,14
1857,default,block1,josh,ai,0.36,5562,confess,19,confess,C,NA,default,38,Yes,NA,Male,English,NA,15
1857,default,block1,pizza,ai,0.38,9076,MC,20,MC,MC,NA,default,38,Yes,NA,Male,English,NA,16
1857,default,block1,kids,ai,0.18999999999999995,5710,MC,21,MC,MC,NA,default,38,Yes,NA,Male,English,NA,17
1857,default,block1,julian,ai,0.30000000000000004,5310,establish,22,establish,C,NA,default,38,Yes,NA,Male,English,NA,18
1857,default,block1,garage,ai,0,11094,MC,23,MC,MC,NA,default,38,Yes,NA,Male,English,NA,19
1857,default,block1,tony,ai,0.06999999999999995,6955,suggest,24,suggest,C,NA,default,38,Yes,NA,Male,English,NA,20
1857,default,block1,zoe,ai,0.07999999999999996,5663,confirm,25,confirm,C,NA,default,38,Yes,NA,Male,English,NA,21
1857,default,block1,muffins,ai,0.13,10317,MC,26,MC,MC,NA,default,38,Yes,NA,Male,English,NA,22
1857,default,block1,sophia,ai,0.13,4253,reveal,27,reveal,C,NA,default,38,Yes,NA,Male,English,NA,23
1857,default,block1,isabella,ai,0.21999999999999997,7098,know,28,know,C,NA,default,38,Yes,NA,Male,English,NA,24
1857,default,block1,grace,ai,0.18999999999999995,5436,discover,29,discover,C,NA,default,38,Yes,NA,Male,English,NA,25
1857,default,block1,charley,ai,0.45999999999999996,19138,pretend,30,pretend,C,NA,default,38,Yes,NA,Male,English,NA,26
1857,default,block2,frank,projective,0.95,15142,be_annoyed,32,be_annoyed,C,NA,default,38,Yes,NA,Male,English,NA,27
1857,default,block2,ballet,projective,1,3345,MC,33,MC,MC,NA,default,38,Yes,NA,Male,English,NA,28
1857,default,block2,josie,projective,0,10132,be_right,34,be_right,C,NA,default,38,Yes,NA,Male,English,NA,29
1857,default,block2,garage,projective,1,5298,MC,35,MC,MC,NA,default,38,Yes,NA,Male,English,NA,30
1857,default,block2,muffins,projective,1,4250,MC,36,MC,MC,NA,default,38,Yes,NA,Male,English,NA,31
1857,default,block2,emma,projective,0.51,8403,think,37,think,C,NA,default,38,Yes,NA,Male,English,NA,32
1857,default,block2,jayden,projective,0.58,7607,acknowledge,38,acknowledge,C,NA,default,38,Yes,NA,Male,English,NA,33
1857,default,block2,emily,projective,0.6,5374,demonstrate,39,demonstrate,C,NA,default,38,Yes,NA,Male,English,NA,34
1857,default,block2,zoe,projective,0.51,8114,confirm,40,confirm,C,NA,default,38,Yes,NA,Male,English,NA,35
1857,default,block2,jon,projective,0.57,8539,inform,41,inform,C,NA,default,38,Yes,NA,Male,English,NA,36
1857,default,block2,jackson,projective,0.57,5356,see,42,see,C,NA,default,38,Yes,NA,Male,English,NA,37
1857,default,block2,julian,projective,0.5,5576,establish,43,establish,C,NA,default,38,Yes,NA,Male,English,NA,38
1857,default,block2,josh,projective,0.58,5668,confess,44,confess,C,NA,default,38,Yes,NA,Male,English,NA,39
1857,default,block2,grace,projective,0.56,5753,discover,45,discover,C,NA,default,38,Yes,NA,Male,English,NA,40
1857,default,block2,mia,projective,0.53,5401,prove,46,prove,C,NA,default,38,Yes,NA,Male,English,NA,41
1857,default,block2,olivia,projective,0.58,5295,hear,47,hear,C,NA,default,38,Yes,NA,Male,English,NA,42
1857,default,block2,kids,projective,1,5911,MC,48,MC,MC,NA,default,38,Yes,NA,Male,English,NA,43
1857,default,block2,owen,projective,0.5,4134,say,49,say,C,NA,default,38,Yes,NA,Male,English,NA,44
1857,default,block2,isabella,projective,0.57,17988,know,50,know,C,NA,default,38,Yes,NA,Male,English,NA,45
1857,default,block2,pizza,projective,1,5123,MC,51,MC,MC,NA,default,38,Yes,NA,Male,English,NA,46
1857,default,block2,tony,projective,0.48,5186,suggest,52,suggest,C,NA,default,38,Yes,NA,Male,English,NA,47
1857,default,block2,sophia,projective,0.5,4134,reveal,53,reveal,C,NA,default,38,Yes,NA,Male,English,NA,48
1857,default,block2,danny,projective,0.56,5266,announce,54,announce,C,NA,default,38,Yes,NA,Male,English,NA,49
1857,default,block2,mary,projective,0.49,3978,admit,55,admit,C,NA,default,38,Yes,NA,Male,English,NA,50
1857,default,block2,charley,projective,0.5,3918,pretend,56,pretend,C,NA,default,38,Yes,NA,Male,English,NA,51
1857,default,block2,hat,projective,1,3136,MC,57,MC,MC,NA,default,38,Yes,NA,Male,English,NA,52
1965,default,block1,jon,projective,0.83,20469,acknowledge,5,acknowledge,C,NA,default,30,Yes,"I have no comment , but the study is a very interesting one",Male,English,NA,1
1965,default,block1,josh,projective,0.98,72323,hear,6,hear,C,NA,default,30,Yes,"I have no comment , but the study is a very interesting one",Male,English,NA,2
1965,default,block1,ballet,projective,0.98,34587,MC,7,MC,MC,NA,default,30,Yes,"I have no comment , but the study is a very interesting one",Male,English,NA,3
1965,default,block1,jackson,projective,0.61,13133,suggest,8,suggest,C,NA,default,30,Yes,"I have no comment , but the study is a very interesting one",Male,English,NA,4
1965,default,block1,danny,projective,0.84,20960,reveal,9,reveal,C,NA,default,30,Yes,"I have no comment , but the study is a very interesting one",Male,English,NA,5
1965,default,block1,zoe,projective,0.96,10323,see,10,see,C,NA,default,30,Yes,"I have no comment , but the study is a very interesting one",Male,English,NA,6
1965,default,block1,josie,projective,0.49,13586,prove,11,prove,C,NA,default,30,Yes,"I have no comment , but the study is a very interesting one",Male,English,NA,7
1965,default,block1,muffins,projective,0.97,11801,MC,12,MC,MC,NA,default,30,Yes,"I have no comment , but the study is a very interesting one",Male,English,NA,8
1965,default,block1,emma,projective,0.95,11054,be_annoyed,13,be_annoyed,C,NA,default,30,Yes,"I have no comment , but the study is a very interesting one",Male,English,NA,9
1965,default,block1,frank,projective,0.64,26895,confirm,14,confirm,C,NA,default,30,Yes,"I have no comment , but the study is a very interesting one",Male,English,NA,10
1965,default,block1,kids,projective,0.96,15999,MC,15,MC,MC,NA,default,30,Yes,"I have no comment , but the study is a very interesting one",Male,English,NA,11
1965,default,block1,isabella,projective,0.63,14327,think,16,think,C,NA,default,30,Yes,"I have no comment , but the study is a very interesting one",Male,English,NA,12
1965,default,block1,jayden,projective,0.66,14176,demonstrate,17,demonstrate,C,NA,default,30,Yes,"I have no comment , but the study is a very interesting one",Male,English,NA,13
1965,default,block1,owen,projective,0.94,9556,discover,18,discover,C,NA,default,30,Yes,"I have no comment , but the study is a very interesting one",Male,English,NA,14
1965,default,block1,mary,projective,0.96,7289,confess,19,confess,C,NA,default,30,Yes,"I have no comment , but the study is a very interesting one",Male,English,NA,15
1965,default,block1,hat,projective,0.96,8254,MC,20,MC,MC,NA,default,30,Yes,"I have no comment , but the study is a very interesting one",Male,English,NA,16
1965,default,block1,charley,projective,0.56,8644,admit,21,admit,C,NA,default,30,Yes,"I have no comment , but the study is a very interesting one",Male,English,NA,17
1965,default,block1,garage,projective,0.97,11698,MC,22,MC,MC,NA,default,30,Yes,"I have no comment , but the study is a very interesting one",Male,English,NA,18
1965,default,block1,tony,projective,0.96,6704,know,23,know,C,NA,default,30,Yes,"I have no comment , but the study is a very interesting one",Male,English,NA,19
1965,default,block1,pizza,projective,0.97,7814,MC,24,MC,MC,NA,default,30,Yes,"I have no comment , but the study is a very interesting one",Male,English,NA,20
1965,default,block1,emily,projective,0.61,9232,say,25,say,C,NA,default,30,Yes,"I have no comment , but the study is a very interesting one",Male,English,NA,21
1965,default,block1,grace,projective,0.49,7810,announce,26,announce,C,NA,default,30,Yes,"I have no comment , but the study is a very interesting one",Male,English,NA,22
1965,default,block1,mia,projective,0.56,7458,establish,27,establish,C,NA,default,30,Yes,"I have no comment , but the study is a very interesting one",Male,English,NA,23
1965,default,block1,olivia,projective,0.08,14735,be_right,28,be_right,C,NA,default,30,Yes,"I have no comment , but the study is a very interesting one",Male,English,NA,24
1965,default,block1,sophia,projective,0.82,10576,inform,29,inform,C,NA,default,30,Yes,"I have no comment , but the study is a very interesting one",Male,English,NA,25
1965,default,block1,julian,projective,0.95,11108,pretend,30,pretend,C,NA,default,30,Yes,"I have no comment , but the study is a very interesting one",Male,English,NA,26
1965,default,block2,zoe,ai,0.10999999999999999,22186,see,32,see,C,NA,default,30,Yes,"I have no comment , but the study is a very interesting one",Male,English,NA,27
1965,default,block2,ballet,ai,0.050000000000000044,5310,MC,33,MC,MC,NA,default,30,Yes,"I have no comment , but the study is a very interesting one",Male,English,NA,28
1965,default,block2,jayden,ai,0.9,10855,demonstrate,34,demonstrate,C,NA,default,30,Yes,"I have no comment , but the study is a very interesting one",Male,English,NA,29
1965,default,block2,emily,ai,0.92,8590,say,35,say,C,NA,default,30,Yes,"I have no comment , but the study is a very interesting one",Male,English,NA,30
1965,default,block2,sophia,ai,0.76,10978,inform,36,inform,C,NA,default,30,Yes,"I have no comment , but the study is a very interesting one",Male,English,NA,31
1965,default,block2,josie,ai,0.74,6449,prove,37,prove,C,NA,default,30,Yes,"I have no comment , but the study is a very interesting one",Male,English,NA,32
1965,default,block2,grace,ai,0.84,5374,announce,38,announce,C,NA,default,30,Yes,"I have no comment , but the study is a very interesting one",Male,English,NA,33
1965,default,block2,garage,ai,0.030000000000000027,8731,MC,39,MC,MC,NA,default,30,Yes,"I have no comment , but the study is a very interesting one",Male,English,NA,34
