workerid,proliferate.condition,block,content,question_type,response,rt,short_trigger,slide_number_in_experiment,trigger,trigger_class,catch_trials,subject_information.age,subject_information.american,subject_information.comments,subject_information.gender,subject_information.language,system.Browser,system.OS,system.screenH,system.screenW,time_in_minutes,error
1833,default,block1,hat,projective,1,5593,MC,5,MC,MC,[],29,Yes,,Female,english,Chrome,Windows,1080,1920,9.350133333333334,
1833,default,block1,pizza,projective,1,7798,MC,6,MC,MC,[],29,Yes,,Female,english,Chrome,Windows,1080,1920,9.350133333333334,
1833,default,block1,danny,projective,0,11543,establish,7,establish,C,[],29,Yes,,Female,english,Chrome,Windows,1080,1920,9.350133333333334,
1833,default,block1,muffins,projective,1,6108,MC,8,MC,MC,[],29,Yes,,Female,english,Chrome,Windows,1080,1920,9.350133333333334,
1833,default,block1,ballet,projective,1,6522,MC,9,MC,MC,[],29,Yes,,Female,english,Chrome,Windows,1080,1920,9.350133333333334,
1833,default,block1,emily,projective,0.22,17188,announce,10,announce,C,[],29,Yes,,Female,english,Chrome,Windows,1080,1920,9.350133333333334,
1833,default,block1,tony,projective,0.3,6968,hear,11,hear,C,[],29,Yes,,Female,english,Chrome,Windows,1080,1920,9.350133333333334,
1833,default,block1,garage,projective,0.91,8368,MC,12,MC,MC,[],29,Yes,,Female,english,Chrome,Windows,1080,1920,9.350133333333334,
1833,default,block1,zoe,projective,0.21,22233,demonstrate,13,demonstrate,C,[],29,Yes,,Female,english,Chrome,Windows,1080,1920,9.350133333333334,
1833,default,block1,sophia,projective,0.64,8854,think,14,think,C,[],29,Yes,,Female,english,Chrome,Windows,1080,1920,9.350133333333334,
1833,default,block1,olivia,projective,0.18,6026,confess,15,confess,C,[],29,Yes,,Female,english,Chrome,Windows,1080,1920,9.350133333333334,
1833,default,block1,josie,projective,1,69119,be_annoyed,16,be_annoyed,C,[],29,Yes,,Female,english,Chrome,Windows,1080,1920,9.350133333333334,
1833,default,block1,frank,projective,1,5588,inform,17,inform,C,[],29,Yes,,Female,english,Chrome,Windows,1080,1920,9.350133333333334,
1833,default,block1,jon,projective,0.78,4778,discover,18,discover,C,[],29,Yes,,Female,english,Chrome,Windows,1080,1920,9.350133333333334,
1833,default,block1,julian,projective,1,4454,know,19,know,C,[],29,Yes,,Female,english,Chrome,Windows,1080,1920,9.350133333333334,
1833,default,block1,jayden,projective,1,6782,acknowledge,20,acknowledge,C,[],29,Yes,,Female,english,Chrome,Windows,1080,1920,9.350133333333334,
1833,default,block1,jackson,projective,0.37,17833,reveal,21,reveal,C,[],29,Yes,,Female,english,Chrome,Windows,1080,1920,9.350133333333334,
1833,default,block1,isabella,projective,0.23,24466,confirm,22,confirm,C,[],29,Yes,,Female,english,Chrome,Windows,1080,1920,9.350133333333334,
1833,default,block1,charley,projective,0.6,4308,admit,23,admit,C,[],29,Yes,,Female,english,Chrome,Windows,1080,1920,9.350133333333334,
1833,default,block1,emma,projective,0.26,5830,suggest,24,suggest,C,[],29,Yes,,Female,english,Chrome,Windows,1080,1920,9.350133333333334,
1833,default,block1,owen,projective,0.6,28609,see,25,see,C,[],29,Yes,,Female,english,Chrome,Windows,1080,1920,9.350133333333334,
1833,default,block1,josh,projective,0.24,15394,say,26,say,C,[],29,Yes,,Female,english,Chrome,Windows,1080,1920,9.350133333333334,
1833,default,block1,mia,projective,0.13,8214,prove,27,prove,C,[],29,Yes,,Female,english,Chrome,Windows,1080,1920,9.350133333333334,
1833,default,block1,kids,projective,1,11528,MC,28,MC,MC,[],29,Yes,,Female,english,Chrome,Windows,1080,1920,9.350133333333334,
1833,default,block1,grace,projective,0.27,33984,pretend,29,pretend,C,[],29,Yes,,Female,english,Chrome,Windows,1080,1920,9.350133333333334,
1833,default,block1,mary,projective,0,4720,be_right,30,be_right,C,[],29,Yes,,Female,english,Chrome,Windows,1080,1920,9.350133333333334,
1833,default,block2,kids,ai,0,7887,MC,32,MC,MC,[],29,Yes,,Female,english,Chrome,Windows,1080,1920,9.350133333333334,
1833,default,block2,tony,ai,1,5538,hear,33,hear,C,[],29,Yes,,Female,english,Chrome,Windows,1080,1920,9.350133333333334,
1833,default,block2,owen,ai,0.86,6258,see,34,see,C,[],29,Yes,,Female,english,Chrome,Windows,1080,1920,9.350133333333334,
1833,default,block2,zoe,ai,0.31,7052,demonstrate,35,demonstrate,C,[],29,Yes,,Female,english,Chrome,Windows,1080,1920,9.350133333333334,
1833,default,block2,emily,ai,0.76,10242,announce,36,announce,C,[],29,Yes,,Female,english,Chrome,Windows,1080,1920,9.350133333333334,
1833,default,block2,mary,ai,0.78,6092,be_right,37,be_right,C,[],29,Yes,,Female,english,Chrome,Windows,1080,1920,9.350133333333334,
1833,default,block2,olivia,ai,0.93,5668,confess,38,confess,C,[],29,Yes,,Female,english,Chrome,Windows,1080,1920,9.350133333333334,
1833,default,block2,charley,ai,0.86,4560,admit,39,admit,C,[],29,Yes,,Female,english,Chrome,Windows,1080,1920,9.350133333333334,
1833,default,block2,emma,ai,0.99,4784,suggest,40,suggest,C,[],29,Yes,,Female,english,Chrome,Windows,1080,1920,9.350133333333334,
1833,default,block2,ballet,ai,0.41,6368,MC,41,MC,MC,[],29,Yes,,Female,english,Chrome,Windows,1080,1920,9.350133333333334,
1833,default,block2,frank,ai,0.83,7858,inform,42,inform,C,[],29,Yes,,Female,english,Chrome,Windows,1080,1920,9.350133333333334,
1833,default,block2,julian,ai,0.89,8070,know,43,know,C,[],29,Yes,,Female,english,Chrome,Windows,1080,1920,9.350133333333334,
1833,default,block2,muffins,ai,0.72,6572,MC,44,MC,MC,[],29,Yes,,Female,english,Chrome,Windows,1080,1920,9.350133333333334,
1833,default,block2,isabella,ai,0.87,4640,confirm,45,confirm,C,[],29,Yes,,Female,english,Chrome,Windows,1080,1920,9.350133333333334,
1833,default,block2,mia,ai,0.87,4818,prove,46,prove,C,[],29,Yes,,Female,english,Chrome,Windows,1080,1920,9.350133333333334,
1833,default,block2,hat,ai,0.27,4786,MC,47,MC,MC,[],29,Yes,,Female,english,Chrome,Windows,1080,1920,9.350133333333334,
1833,default,block2,josie,ai,0.06,4986,be_annoyed,48,be_annoyed,C,[],29,Yes,,Female,english,Chrome,Windows,1080,1920,9.350133333333334,
1833,default,block2,jackson,ai,0.83,6543,reveal,49,reveal,C,[],29,Yes,,Female,english,Chrome,Windows,1080,1920,9.350133333333334,
1833,default,block2,garage,ai,0.39,4857,MC,50,MC,MC,[],29,Yes,,Female,english,Chrome,Windows,1080,1920,9.350133333333334,
1833,default,block2,jon,ai,0.82,6388,discover,51,discover,C,[],29,Yes,,Female,english,Chrome,Windows,1080,1920,9.350133333333334,
1833,default,block2,danny,ai,0.86,4226,establish,52,establish,C,[],29,Yes,,Female,english,Chrome,Windows,1080,1920,9.350133333333334,
1833,default,block2,pizza,ai,0.08,5360,MC,53,MC,MC,[],29,Yes,,Female,english,Chrome,Windows,1080,1920,9.350133333333334,
1833,default,block2,jayden,ai,0.88,4890,acknowledge,54,acknowledge,C,[],29,Yes,,Female,english,Chrome,Windows,1080,1920,9.350133333333334,
1833,default,block2,sophia,ai,1,10590,think,55,think,C,[],29,Yes,,Female,english,Chrome,Windows,1080,1920,9.350133333333334,
1833,default,block2,grace,ai,0.76,6052,pretend,56,pretend,C,[],29,Yes,,Female,english,Chrome,Windows,1080,1920,9.350133333333334,
1833,default,block2,josh,ai,0.95,6456,say,57,say,C,[],29,Yes,,Female,english,Chrome,Windows,1080,1920,9.350133333333334,
1895,default,block1,julian,projective,0.98,14014,acknowledge,5,acknowledge,C,[],50,Yes,,Female,English,Firefox,Windows,864,1536,10.690883333333334,
1895,default,block1,grace,projective,0.98,10086,announce,6,announce,C,[],50,Yes,,Female,English,Firefox,Windows,864,1536,10.690883333333334,
1895,default,block1,zoe,projective,1,9056,hear,7,hear,C,[],50,Yes,,Female,English,Firefox,Windows,864,1536,10.690883333333334,
1895,default,block1,frank,projective,0.98,9528,confess,8,confess,C,[],50,Yes,,Female,English,Firefox,Windows,864,1536,10.690883333333334,
1895,default,block1,jon,projective,0.99,6791,discover,9,discover,C,[],50,Yes,,Female,English,Firefox,Windows,864,1536,10.690883333333334,
1895,default,block1,emma,projective,0.87,16656,demonstrate,10,demonstrate,C,[],50,Yes,,Female,English,Firefox,Windows,864,1536,10.690883333333334,
1895,default,block1,charley,projective,0.99,7920,be_annoyed,11,be_annoyed,C,[],50,Yes,,Female,English,Firefox,Windows,864,1536,10.690883333333334,
1895,default,block1,emily,projective,0.98,9359,inform,12,inform,C,[],50,Yes,,Female,English,Firefox,Windows,864,1536,10.690883333333334,
1895,default,block1,jackson,projective,0.87,12009,think,13,think,C,[],50,Yes,,Female,English,Firefox,Windows,864,1536,10.690883333333334,
1895,default,block1,kids,projective,0.99,11112,MC,14,MC,MC,[],50,Yes,,Female,English,Firefox,Windows,864,1536,10.690883333333334,
1895,default,block1,pizza,projective,0.99,5608,MC,15,MC,MC,[],50,Yes,,Female,English,Firefox,Windows,864,1536,10.690883333333334,
1895,default,block1,josh,projective,0.94,11279,know,16,know,C,[],50,Yes,,Female,English,Firefox,Windows,864,1536,10.690883333333334,
1895,default,block1,tony,projective,0.14,29047,prove,17,prove,C,[],50,Yes,,Female,English,Firefox,Windows,864,1536,10.690883333333334,
1895,default,block1,hat,projective,0.99,6584,MC,18,MC,MC,[],50,Yes,,Female,English,Firefox,Windows,864,1536,10.690883333333334,
1895,default,block1,mary,projective,0.3,11816,confirm,19,confirm,C,[],50,Yes,,Female,English,Firefox,Windows,864,1536,10.690883333333334,
1895,default,block1,josie,projective,0.22,14232,suggest,20,suggest,C,[],50,Yes,,Female,English,Firefox,Windows,864,1536,10.690883333333334,
1895,default,block1,garage,projective,0.99,7568,MC,21,MC,MC,[],50,Yes,,Female,English,Firefox,Windows,864,1536,10.690883333333334,
1895,default,block1,owen,projective,0.07,23409,establish,22,establish,C,[],50,Yes,,Female,English,Firefox,Windows,864,1536,10.690883333333334,
1895,default,block1,danny,projective,0.91,19560,reveal,23,reveal,C,[],50,Yes,,Female,English,Firefox,Windows,864,1536,10.690883333333334,
1895,default,block1,ballet,projective,0.99,4551,MC,24,MC,MC,[],50,Yes,,Female,English,Firefox,Windows,864,1536,10.690883333333334,
1895,default,block1,olivia,projective,0.32,11040,admit,25,admit,C,[],50,Yes,,Female,English,Firefox,Windows,864,1536,10.690883333333334,
1895,default,block1,muffins,projective,0.99,4584,MC,26,MC,MC,[],50,Yes,,Female,English,Firefox,Windows,864,1536,10.690883333333334,
1895,default,block1,isabella,projective,0.02,27944,be_right,27,be_right,C,[],50,Yes,,Female,English,Firefox,Windows,864,1536,10.690883333333334,
1895,default,block1,mia,projective,0.9,11705,say,28,say,C,[],50,Yes,,Female,English,Firefox,Windows,864,1536,10.690883333333334,
1895,default,block1,jayden,projective,0.99,7799,see,29,see,C,[],50,Yes,,Female,English,Firefox,Windows,864,1536,10.690883333333334,
1895,default,block1,sophia,projective,0.14,15097,pretend,30,pretend,C,[],50,Yes,,Female,English,Firefox,Windows,864,1536,10.690883333333334,
1895,default,block2,olivia,ai,0.99,14783,admit,32,admit,C,[],50,Yes,,Female,English,Firefox,Windows,864,1536,10.690883333333334,
1895,default,block2,mia,ai,0.98,15370,say,33,say,C,[],50,Yes,,Female,English,Firefox,Windows,864,1536,10.690883333333334,
1895,default,block2,frank,ai,0.99,10351,confess,34,confess,C,[],50,Yes,,Female,English,Firefox,Windows,864,1536,10.690883333333334,
1895,default,block2,danny,ai,0.99,6528,reveal,35,reveal,C,[],50,Yes,,Female,English,Firefox,Windows,864,1536,10.690883333333334,
1895,default,block2,owen,ai,0.99,11128,establish,36,establish,C,[],50,Yes,,Female,English,Firefox,Windows,864,1536,10.690883333333334,
1895,default,block2,charley,ai,0.99,7895,be_annoyed,37,be_annoyed,C,[],50,Yes,,Female,English,Firefox,Windows,864,1536,10.690883333333334,
1895,default,block2,kids,ai,0.99,9160,MC,38,MC,MC,[],50,Yes,,Female,English,Firefox,Windows,864,1536,10.690883333333334,
1895,default,block2,jon,ai,0.99,8441,discover,39,discover,C,[],50,Yes,,Female,English,Firefox,Windows,864,1536,10.690883333333334,
1895,default,block2,grace,ai,0.98,23528,announce,40,announce,C,[],50,Yes,,Female,English,Firefox,Windows,864,1536,10.690883333333334,
1895,default,block2,pizza,ai,0.98,4479,MC,41,MC,MC,[],50,Yes,,Female,English,Firefox,Windows,864,1536,10.690883333333334,
1895,default,block2,julian,ai,0.99,4547,acknowledge,42,acknowledge,C,[],50,Yes,,Female,English,Firefox,Windows,864,1536,10.690883333333334,
1895,default,block2,sophia,ai,0.02,12565,pretend,43,pretend,C,[],50,Yes,,Female,English,Firefox,Windows,864,1536,10.690883333333334,
1895,default,block2,muffins,ai,0.98,3736,MC,44,MC,MC,[],50,Yes,,Female,English,Firefox,Windows,864,1536,10.690883333333334,
1895,default,block2,tony,ai,0.36,15496,prove,45,prove,C,[],50,Yes,,Female,English,Firefox,Windows,864,1536,10.690883333333334,
1895,default,block2,josh,ai,0.98,6289,know,46,know,C,[],50,Yes,,Female,English,Firefox,Windows,864,1536,10.690883333333334,
1895,default,block2,jayden,ai,0.98,5903,see,47,see,C,[],50,Yes,,Female,English,Firefox,Windows,864,1536,10.690883333333334,
1895,default,block2,hat,ai,0.99,3120,MC,48,MC,MC,[],50,Yes,,Female,English,Firefox,Windows,864,1536,10.690883333333334,
1895,default,block2,josie,ai,0.37,13408,suggest,49,suggest,C,[],50,Yes,,Female,English,Firefox,Windows,864,1536,10.690883333333334,
1895,default,block2,emma,ai,0.43,8113,demonstrate,50,demonstrate,C,[],50,Yes,,Female,English,Firefox,Windows,864,1536,10.690883333333334,
1895,default,block2,ballet,ai,0.99,3287,MC,51,MC,MC,[],50,Yes,,Female,English,Firefox,Windows,864,1536,10.690883333333334,
1895,default,block2,zoe,ai,0.99,5400,hear,52,hear,C,[],50,Yes,,Female,English,Firefox,Windows,864,1536,10.690883333333334,
1895,default,block2,mary,ai,0.06,10720,confirm,53,confirm,C,[],50,Yes,,Female,English,Firefox,Windows,864,1536,10.690883333333334,
1895,default,block2,emily,ai,0.98,7287,inform,54,inform,C,[],50,Yes,,Female,English,Firefox,Windows,864,1536,10.690883333333334,
1895,default,block2,jackson,ai,0.98,6016,think,55,think,C,[],50,Yes,,Female,English,Firefox,Windows,864,1536,10.690883333333334,
1895,default,block2,garage,ai,0.99,14456,MC,56,MC,MC,[],50,Yes,,Female,English,Firefox,Windows,864,1536,10.690883333333334,
1895,default,block2,isabella,ai,0.01,9472,be_right,57,be_right,C,[],50,Yes,,Female,English,Firefox,Windows,864,1536,10.690883333333334,
1966,default,block1,mary,ai,0,14805,think,5,think,C,[],28,Yes,,Male,English,Chrome,Mac,900,1440,6.32385,
1966,default,block1,emma,ai,1,9820,announce,6,announce,C,[],28,Yes,,Male,English,Chrome,Mac,900,1440,6.32385,
1966,default,block1,emily,ai,1,9059,be_annoyed,7,be_annoyed,C,[],28,Yes,,Male,English,Chrome,Mac,900,1440,6.32385,
1966,default,block1,frank,ai,0,10803,establish,8,establish,C,[],28,Yes,,Male,English,Chrome,Mac,900,1440,6.32385,
1966,default,block1,kids,ai,1,8889,MC,9,MC,MC,[],28,Yes,,Male,English,Chrome,Mac,900,1440,6.32385,
1966,default,block1,josie,ai,1,7808,discover,10,discover,C,[],28,Yes,,Male,English,Chrome,Mac,900,1440,6.32385,
1966,default,block1,sophia,ai,0,5477,hear,11,hear,C,[],28,Yes,,Male,English,Chrome,Mac,900,1440,6.32385,
1966,default,block1,garage,ai,1,9061,MC,12,MC,MC,[],28,Yes,,Male,English,Chrome,Mac,900,1440,6.32385,
1966,default,block1,isabella,ai,0,4955,confirm,13,confirm,C,[],28,Yes,,Male,English,Chrome,Mac,900,1440,6.32385,
1966,default,block1,jon,ai,0,5002,confess,14,confess,C,[],28,Yes,,Male,English,Chrome,Mac,900,1440,6.32385,
1966,default,block1,owen,ai,0,5314,suggest,15,suggest,C,[],28,Yes,,Male,English,Chrome,Mac,900,1440,6.32385,
1966,default,block1,charley,ai,0,5856,pretend,16,pretend,C,[],28,Yes,,Male,English,Chrome,Mac,900,1440,6.32385,
1966,default,block1,muffins,ai,1,7321,MC,17,MC,MC,[],28,Yes,,Male,English,Chrome,Mac,900,1440,6.32385,
1966,default,block1,danny,ai,0,12425,see,18,see,C,[],28,Yes,,Male,English,Chrome,Mac,900,1440,6.32385,
1966,default,block1,ballet,ai,1,5208,MC,19,MC,MC,[],28,Yes,,Male,English,Chrome,Mac,900,1440,6.32385,
1966,default,block1,mia,ai,0,4389,say,20,say,C,[],28,Yes,,Male,English,Chrome,Mac,900,1440,6.32385,
1966,default,block1,zoe,ai,0,4200,acknowledge,21,acknowledge,C,[],28,Yes,,Male,English,Chrome,Mac,900,1440,6.32385,
1966,default,block1,grace,ai,0,11269,know,22,know,C,[],28,Yes,,Male,English,Chrome,Mac,900,1440,6.32385,
1966,default,block1,jayden,ai,0,3933,be_right,23,be_right,C,[],28,Yes,,Male,English,Chrome,Mac,900,1440,6.32385,
1966,default,block1,julian,ai,0,10501,admit,24,admit,C,[],28,Yes,,Male,English,Chrome,Mac,900,1440,6.32385,
1966,default,block1,hat,ai,1,8994,MC,25,MC,MC,[],28,Yes,,Male,English,Chrome,Mac,900,1440,6.32385,
1966,default,block1,jackson,ai,0,6502,inform,26,inform,C,[],28,Yes,,Male,English,Chrome,Mac,900,1440,6.32385,
1966,default,block1,tony,ai,0,4308,reveal,27,reveal,C,[],28,Yes,,Male,English,Chrome,Mac,900,1440,6.32385,
1966,default,block1,pizza,ai,1,5064,MC,28,MC,MC,[],28,Yes,,Male,English,Chrome,Mac,900,1440,6.32385,
1966,default,block1,olivia,ai,0,9455,prove,29,prove,C,[],28,Yes,,Male,English,Chrome,Mac,900,1440,6.32385,
1966,default,block1,josh,ai,0,7626,demonstrate,30,demonstrate,C,[],28,Yes,,Male,English,Chrome,Mac,900,1440,6.32385,
1966,default,block2,jackson,projective,0,4922,inform,32,inform,C,[],28,Yes,,Male,English,Chrome,Mac,900,1440,6.32385,
1966,default,block2,charley,projective,0,3973,pretend,33,pretend,C,[],28,Yes,,Male,English,Chrome,Mac,900,1440,6.32385,
1966,default,block2,kids,projective,1,3695,MC,34,MC,MC,[],28,Yes,,Male,English,Chrome,Mac,900,1440,6.32385,
1966,default,block2,olivia,projective,0,4307,prove,35,prove,C,[],28,Yes,,Male,English,Chrome,Mac,900,1440,6.32385,
1966,default,block2,pizza,projective,1,8090,MC,36,MC,MC,[],28,Yes,,Male,English,Chrome,Mac,900,1440,6.32385,
1966,default,block2,josh,projective,0,4192,demonstrate,37,demonstrate,C,[],28,Yes,,Male,English,Chrome,Mac,900,1440,6.32385,
1966,default,block2,ballet,projective,1,5825,MC,38,MC,MC,[],28,Yes,,Male,English,Chrome,Mac,900,1440,6.32385,
1966,default,block2,danny,projective,0,4619,see,39,see,C,[],28,Yes,,Male,English,Chrome,Mac,900,1440,6.32385,
1966,default,block2,emily,projective,0.48,5823,be_annoyed,40,be_annoyed,C,[],28,Yes,,Male,English,Chrome,Mac,900,1440,6.32385,
1966,default,block2,mary,projective,0.49,4414,think,41,think,C,[],28,Yes,,Male,English,Chrome,Mac,900,1440,6.32385,
1966,default,block2,jon,projective,0,8792,confess,42,confess,C,[],28,Yes,,Male,English,Chrome,Mac,900,1440,6.32385,
1966,default,block2,jayden,projective,0,8292,be_right,43,be_right,C,[],28,Yes,,Male,English,Chrome,Mac,900,1440,6.32385,
1966,default,block2,grace,projective,0,5828,know,44,know,C,[],28,Yes,,Male,English,Chrome,Mac,900,1440,6.32385,
1966,default,block2,mia,projective,0,4522,say,45,say,C,[],28,Yes,,Male,English,Chrome,Mac,900,1440,6.32385,
1966,default,block2,muffins,projective,1,3825,MC,46,MC,MC,[],28,Yes,,Male,English,Chrome,Mac,900,1440,6.32385,
1966,default,block2,sophia,projective,0,4921,hear,47,hear,C,[],28,Yes,,Male,English,Chrome,Mac,900,1440,6.32385,
1966,default,block2,owen,projective,0,11767,suggest,48,suggest,C,[],28,Yes,,Male,English,Chrome,Mac,900,1440,6.32385,
1966,default,block2,emma,projective,0.51,6636,announce,49,announce,C,[],28,Yes,,Male,English,Chrome,Mac,900,1440,6.32385,
1966,default,block2,frank,projective,0,3166,establish,50,establish,C,[],28,Yes,,Male,English,Chrome,Mac,900,1440,6.32385,
1966,default,block2,tony,projective,0.48,4899,reveal,51,reveal,C,[],28,Yes,,Male,English,Chrome,Mac,900,1440,6.32385,
1966,default,block2,isabella,projective,0.48,4815,confirm,52,confirm,C,[],28,Yes,,Male,English,Chrome,Mac,900,1440,6.32385,
1966,default,block2,zoe,projective,0,4833,acknowledge,53,acknowledge,C,[],28,Yes,,Male,English,Chrome,Mac,900,1440,6.32385,
1966,default,block2,julian,projective,0.48,5380,admit,54,admit,C,[],28,Yes,,Male,English,Chrome,Mac,900,1440,6.32385,
1966,default,block2,hat,projective,1,3200,MC,55,MC,MC,[],28,Yes,,Male,English,Chrome,Mac,900,1440,6.32385,
1966,default,block2,josie,projective,0.48,6420,discover,56,discover,C,[],28,Yes,,Male,English,Chrome,Mac,900,1440,6.32385,
1966,default,block2,garage,projective,1,3458,MC,57,MC,MC,[],28,Yes,,Male,English,Chrome,Mac,900,1440,6.32385,
1973,default,block1,grace,projective,0.91,25397,see,5,see,C,[],31,Yes,,Male,,Chrome,Linux,732,412,35.131483333333335,
1973,default,block1,isabella,projective,0.94,12203,confess,6,confess,C,[],31,Yes,,Male,,Chrome,Linux,732,412,35.131483333333335,
1973,default,block1,jon,projective,0.97,14403,pretend,7,pretend,C,[],31,Yes,,Male,,Chrome,Linux,732,412,35.131483333333335,
1973,default,block1,emma,projective,0.79,182580,confirm,8,confirm,C,[],31,Yes,,Male,,Chrome,Linux,732,412,35.131483333333335,
1973,default,block1,mia,projective,0.95,6331,inform,9,inform,C,[],31,Yes,,Male,,Chrome,Linux,732,412,35.131483333333335,
1973,default,block1,muffins,projective,0.98,11251,MC,10,MC,MC,[],31,Yes,,Male,,Chrome,Linux,732,412,35.131483333333335,
1973,default,block1,owen,projective,0.97,12567,prove,11,prove,C,[],31,Yes,,Male,,Chrome,Linux,732,412,35.131483333333335,
1973,default,block1,josh,projective,0.97,8237,discover,12,discover,C,[],31,Yes,,Male,,Chrome,Linux,732,412,35.131483333333335,
1973,default,block1,tony,projective,0.96,7793,demonstrate,13,demonstrate,C,[],31,Yes,,Male,,Chrome,Linux,732,412,35.131483333333335,
1973,default,block1,julian,projective,0.95,7097,admit,14,admit,C,[],31,Yes,,Male,,Chrome,Linux,732,412,35.131483333333335,
1973,default,block1,zoe,projective,0.74,5654,know,15,know,C,[],31,Yes,,Male,,Chrome,Linux,732,412,35.131483333333335,
1973,default,block1,ballet,projective,0.98,17188,MC,16,MC,MC,[],31,Yes,,Male,,Chrome,Linux,732,412,35.131483333333335,
1973,default,block1,danny,projective,0.97,12359,hear,17,hear,C,[],31,Yes,,Male,,Chrome,Linux,732,412,35.131483333333335,
1973,default,block1,pizza,projective,0.93,259233,MC,18,MC,MC,[],31,Yes,,Male,,Chrome,Linux,732,412,35.131483333333335,
1973,default,block1,josie,projective,1,15454,acknowledge,19,acknowledge,C,[],31,Yes,,Male,,Chrome,Linux,732,412,35.131483333333335,
1973,default,block1,jackson,projective,0.85,9467,establish,20,establish,C,[],31,Yes,,Male,,Chrome,Linux,732,412,35.131483333333335,
1973,default,block1,mary,projective,0.02,12064,be_right,21,be_right,C,[],31,Yes,,Male,,Chrome,Linux,732,412,35.131483333333335,
1973,default,block1,frank,projective,0.97,117857,announce,22,announce,C,[],31,Yes,,Male,,Chrome,Linux,732,412,35.131483333333335,
1973,default,block1,kids,projective,0.95,33052,MC,23,MC,MC,[],31,Yes,,Male,,Chrome,Linux,732,412,35.131483333333335,
1973,default,block1,hat,projective,0.94,8036,MC,24,MC,MC,[],31,Yes,,Male,,Chrome,Linux,732,412,35.131483333333335,
1973,default,block1,jayden,projective,0.97,11991,be_annoyed,25,be_annoyed,C,[],31,Yes,,Male,,Chrome,Linux,732,412,35.131483333333335,
1973,default,block1,garage,projective,0.99,158601,MC,26,MC,MC,[],31,Yes,,Male,,Chrome,Linux,732,412,35.131483333333335,
1973,default,block1,emily,projective,0.44,34727,say,27,say,C,[],31,Yes,,Male,,Chrome,Linux,732,412,35.131483333333335,
1973,default,block1,olivia,projective,0.07,13210,suggest,28,suggest,C,[],31,Yes,,Male,,Chrome,Linux,732,412,35.131483333333335,
1973,default,block1,charley,projective,0.92,5416,reveal,29,reveal,C,[],31,Yes,,Male,,Chrome,Linux,732,412,35.131483333333335,
1973,default,block1,sophia,projective,0.88,13261,think,30,think,C,[],31,Yes,,Male,,Chrome,Linux,732,412,35.131483333333335,
1973,default,block2,jackson,ai,0.96,177577,establish,32,establish,C,[],31,Yes,,Male,,Chrome,Linux,732,412,35.131483333333335,
1973,default,block2,isabella,ai,0.92,22977,confess,33,confess,C,[],31,Yes,,Male,,Chrome,Linux,732,412,35.131483333333335,
1973,default,block2,jayden,ai,0.91,7077,be_annoyed,34,be_annoyed,C,[],31,Yes,,Male,,Chrome,Linux,732,412,35.131483333333335,
1973,default,block2,frank,ai,0.87,38255,announce,35,announce,C,[],31,Yes,,Male,,Chrome,Linux,732,412,35.131483333333335,
1973,default,block2,josie,ai,0.65,7592,acknowledge,36,acknowledge,C,[],31,Yes,,Male,,Chrome,Linux,732,412,35.131483333333335,
1973,default,block2,owen,ai,0.93,5506,prove,37,prove,C,[],31,Yes,,Male,,Chrome,Linux,732,412,35.131483333333335,
1973,default,block2,muffins,ai,0.93,6940,MC,38,MC,MC,[],31,Yes,,Male,,Chrome,Linux,732,412,35.131483333333335,
1973,default,block2,kids,ai,0.96,83204,MC,39,MC,MC,[],31,Yes,,Male,,Chrome,Linux,732,412,35.131483333333335,
1973,default,block2,mary,ai,0.04,8190,be_right,40,be_right,C,[],31,Yes,,Male,,Chrome,Linux,732,412,35.131483333333335,
1973,default,block2,ballet,ai,0.95,6310,MC,41,MC,MC,[],31,Yes,,Male,,Chrome,Linux,732,412,35.131483333333335,
1973,default,block2,zoe,ai,0.94,5664,know,42,know,C,[],31,Yes,,Male,,Chrome,Linux,732,412,35.131483333333335,
1973,default,block2,emma,ai,0.95,180766,confirm,43,confirm,C,[],31,Yes,,Male,,Chrome,Linux,732,412,35.131483333333335,
1973,default,block2,emily,ai,0.95,10960,say,44,say,C,[],31,Yes,,Male,,Chrome,Linux,732,412,35.131483333333335,
1973,default,block2,sophia,ai,0.03,41735,think,45,think,C,[],31,Yes,,Male,,Chrome,Linux,732,412,35.131483333333335,
1973,default,block2,mia,ai,0.35,7212,inform,46,inform,C,[],31,Yes,,Male,,Chrome,Linux,732,412,35.131483333333335,
1973,default,block2,jon,ai,0.98,6543,pretend,47,pretend,C,[],31,Yes,,Male,,Chrome,Linux,732,412,35.131483333333335,
1973,default,block2,hat,ai,0.98,5997,MC,48,MC,MC,[],31,Yes,,Male,,Chrome,Linux,732,412,35.131483333333335,
1973,default,block2,garage,ai,0.98,29879,MC,49,MC,MC,[],31,Yes,,Male,,Chrome,Linux,732,412,35.131483333333335,
1973,default,block2,julian,ai,0.97,5400,admit,50,admit,C,[],31,Yes,,Male,,Chrome,Linux,732,412,35.131483333333335,
1973,default,block2,josh,ai,0.93,3546,discover,51,discover,C,[],31,Yes,,Male,,Chrome,Linux,732,412,35.131483333333335,
1973,default,block2,olivia,ai,0.74,2184,suggest,52,suggest,C,[],31,Yes,,Male,,Chrome,Linux,732,412,35.131483333333335,
1973,default,block2,pizza,ai,0.9,2401,MC,53,MC,MC,[],31,Yes,,Male,,Chrome,Linux,732,412,35.131483333333335,
1973,default,block2,tony,ai,0.15,166483,demonstrate,54,demonstrate,C,[],31,Yes,,Male,,Chrome,Linux,732,412,35.131483333333335,
1973,default,block2,grace,ai,0.97,11582,see,55,see,C,[],31,Yes,,Male,,Chrome,Linux,732,412,35.131483333333335,
1973,default,block2,charley,ai,0.93,8173,reveal,56,reveal,C,[],31,Yes,,Male,,Chrome,Linux,732,412,35.131483333333335,
1973,default,block2,danny,ai,0.88,1551,hear,57,hear,C,[],31,Yes,,Male,,Chrome,Linux,732,412,35.131483333333335,
1817,default,block1,jackson,ai,0.04,15399,see,5,see,C,[],67,Yes,interesting,Female,english,Chrome,Mac,1440,2560,9.36495,
1817,default,block1,jon,ai,0.02,12264,think,6,think,C,[],67,Yes,interesting,Female,english,Chrome,Mac,1440,2560,9.36495,
1817,default,block1,hat,ai,0.03,7967,MC,7,MC,MC,[],67,Yes,interesting,Female,english,Chrome,Mac,1440,2560,9.36495,
1817,default,block1,pizza,ai,0.78,10561,MC,8,MC,MC,[],67,Yes,interesting,Female,english,Chrome,Mac,1440,2560,9.36495,
1817,default,block1,grace,ai,0.04,8855,be_annoyed,9,be_annoyed,C,[],67,Yes,interesting,Female,english,Chrome,Mac,1440,2560,9.36495,
1817,default,block1,danny,ai,0.22,19248,be_right,10,be_right,C,[],67,Yes,interesting,Female,english,Chrome,Mac,1440,2560,9.36495,
1817,default,block1,josh,ai,0.03,8512,announce,11,announce,C,[],67,Yes,interesting,Female,english,Chrome,Mac,1440,2560,9.36495,
1817,default,block1,emma,ai,0.13,17232,confess,12,confess,C,[],67,Yes,interesting,Female,english,Chrome,Mac,1440,2560,9.36495,
1817,default,block1,mia,ai,0.24,10968,inform,13,inform,C,[],67,Yes,interesting,Female,english,Chrome,Mac,1440,2560,9.36495,
1817,default,block1,josie,ai,0.32,9920,say,14,say,C,[],67,Yes,interesting,Female,english,Chrome,Mac,1440,2560,9.36495,
1817,default,block1,jayden,ai,0.22,9575,discover,15,discover,C,[],67,Yes,interesting,Female,english,Chrome,Mac,1440,2560,9.36495,
1817,default,block1,julian,ai,0.34,8007,hear,16,hear,C,[],67,Yes,interesting,Female,english,Chrome,Mac,1440,2560,9.36495,
1817,default,block1,olivia,ai,0.17,8528,demonstrate,17,demonstrate,C,[],67,Yes,interesting,Female,english,Chrome,Mac,1440,2560,9.36495,
1817,default,block1,tony,ai,0.41,11256,know,18,know,C,[],67,Yes,interesting,Female,english,Chrome,Mac,1440,2560,9.36495,
1817,default,block1,muffins,ai,0.57,10464,MC,19,MC,MC,[],67,Yes,interesting,Female,english,Chrome,Mac,1440,2560,9.36495,
1817,default,block1,isabella,ai,0.22,13592,pretend,20,pretend,C,[],67,Yes,interesting,Female,english,Chrome,Mac,1440,2560,9.36495,
1817,default,block1,charley,ai,0.5,12224,suggest,21,suggest,C,[],67,Yes,interesting,Female,english,Chrome,Mac,1440,2560,9.36495,
1817,default,block1,frank,ai,0.43,7983,prove,22,prove,C,[],67,Yes,interesting,Female,english,Chrome,Mac,1440,2560,9.36495,
1817,default,block1,garage,ai,0.71,17928,MC,23,MC,MC,[],67,Yes,interesting,Female,english,Chrome,Mac,1440,2560,9.36495,
1817,default,block1,owen,ai,0.2,10656,establish,24,establish,C,[],67,Yes,interesting,Female,english,Chrome,Mac,1440,2560,9.36495,
1817,default,block1,sophia,ai,0.49,6960,admit,25,admit,C,[],67,Yes,interesting,Female,english,Chrome,Mac,1440,2560,9.36495,
1817,default,block1,kids,ai,0.87,14055,MC,26,MC,MC,[],67,Yes,interesting,Female,english,Chrome,Mac,1440,2560,9.36495,
1817,default,block1,mary,ai,0.58,9873,acknowledge,27,acknowledge,C,[],67,Yes,interesting,Female,english,Chrome,Mac,1440,2560,9.36495,
1817,default,block1,emily,ai,0.28,10328,confirm,28,confirm,C,[],67,Yes,interesting,Female,english,Chrome,Mac,1440,2560,9.36495,
1817,default,block1,zoe,ai,0.14,6640,reveal,29,reveal,C,[],67,Yes,interesting,Female,english,Chrome,Mac,1440,2560,9.36495,
1817,default,block1,ballet,ai,0.89,9599,MC,30,MC,MC,[],67,Yes,interesting,Female,english,Chrome,Mac,1440,2560,9.36495,
1817,default,block2,tony,projective,0.88,10855,know,32,know,C,[],67,Yes,interesting,Female,english,Chrome,Mac,1440,2560,9.36495,
1817,default,block2,julian,projective,0.62,11776,hear,33,hear,C,[],67,Yes,interesting,Female,english,Chrome,Mac,1440,2560,9.36495,
1817,default,block2,emma,projective,0.65,11880,confess,34,confess,C,[],67,Yes,interesting,Female,english,Chrome,Mac,1440,2560,9.36495,
1817,default,block2,mia,projective,0.26,10640,inform,35,inform,C,[],67,Yes,interesting,Female,english,Chrome,Mac,1440,2560,9.36495,
1817,default,block2,ballet,projective,0.95,6512,MC,36,MC,MC,[],67,Yes,interesting,Female,english,Chrome,Mac,1440,2560,9.36495,
1817,default,block2,kids,projective,0.94,5967,MC,37,MC,MC,[],67,Yes,interesting,Female,english,Chrome,Mac,1440,2560,9.36495,
1817,default,block2,josh,projective,0.35,7168,announce,38,announce,C,[],67,Yes,interesting,Female,english,Chrome,Mac,1440,2560,9.36495,
1817,default,block2,jon,projective,0.05,5864,think,39,think,C,[],67,Yes,interesting,Female,english,Chrome,Mac,1440,2560,9.36495,
1817,default,block2,sophia,projective,0.74,8296,admit,40,admit,C,[],67,Yes,interesting,Female,english,Chrome,Mac,1440,2560,9.36495,
1817,default,block2,hat,projective,0.95,4463,MC,41,MC,MC,[],67,Yes,interesting,Female,english,Chrome,Mac,1440,2560,9.36495,
1817,default,block2,emily,projective,0.17,6704,confirm,42,confirm,C,[],67,Yes,interesting,Female,english,Chrome,Mac,1440,2560,9.36495,
1817,default,block2,frank,projective,0.03,5048,prove,43,prove,C,[],67,Yes,interesting,Female,english,Chrome,Mac,1440,2560,9.36495,
1817,default,block2,pizza,projective,0.98,5504,MC,44,MC,MC,[],67,Yes,interesting,Female,english,Chrome,Mac,1440,2560,9.36495,
1817,default,block2,muffins,projective,0.95,4592,MC,45,MC,MC,[],67,Yes,interesting,Female,english,Chrome,Mac,1440,2560,9.36495,
1817,default,block2,jayden,projective,0.95,9216,discover,46,discover,C,[],67,Yes,interesting,Female,english,Chrome,Mac,1440,2560,9.36495,
1817,default,block2,josie,projective,0.05,5064,say,47,say,C,[],67,Yes,interesting,Female,english,Chrome,Mac,1440,2560,9.36495,
1817,default,block2,jackson,projective,0.66,7400,see,48,see,C,[],67,Yes,interesting,Female,english,Chrome,Mac,1440,2560,9.36495,
1817,default,block2,zoe,projective,0.89,5864,reveal,49,reveal,C,[],67,Yes,interesting,Female,english,Chrome,Mac,1440,2560,9.36495,
1817,default,block2,isabella,projective,0.02,12504,pretend,50,pretend,C,[],67,Yes,interesting,Female,english,Chrome,Mac,1440,2560,9.36495,
1817,default,block2,danny,projective,0.04,6504,be_right,51,be_right,C,[],67,Yes,interesting,Female,english,Chrome,Mac,1440,2560,9.36495,
1817,default,block2,owen,projective,0.06,5831,establish,52,establish,C,[],67,Yes,interesting,Female,english,Chrome,Mac,1440,2560,9.36495,
1817,default,block2,olivia,projective,0.1,8767,demonstrate,53,demonstrate,C,[],67,Yes,interesting,Female,english,Chrome,Mac,1440,2560,9.36495,
1817,default,block2,charley,projective,0.02,6296,suggest,54,suggest,C,[],67,Yes,interesting,Female,english,Chrome,Mac,1440,2560,9.36495,
1817,default,block2,mary,projective,0.62,9792,acknowledge,55,acknowledge,C,[],67,Yes,interesting,Female,english,Chrome,Mac,1440,2560,9.36495,
1817,default,block2,grace,projective,0.96,8832,be_annoyed,56,be_annoyed,C,[],67,Yes,interesting,Female,english,Chrome,Mac,1440,2560,9.36495,
1817,default,block2,garage,projective,0.97,7416,MC,57,MC,MC,[],67,Yes,interesting,Female,english,Chrome,Mac,1440,2560,9.36495,
1984,default,block1,olivia,projective,0.03,8419,establish,5,establish,C,[],24,Yes,none,Female,english,Chrome,Windows,864,1536,25.99915,
1984,default,block1,kids,projective,0.94,8632,MC,6,MC,MC,[],24,Yes,none,Female,english,Chrome,Windows,864,1536,25.99915,
1984,default,block1,hat,projective,0.93,5808,MC,7,MC,MC,[],24,Yes,none,Female,english,Chrome,Windows,864,1536,25.99915,
1984,default,block1,frank,projective,0.95,6873,be_annoyed,8,be_annoyed,C,[],24,Yes,none,Female,english,Chrome,Windows,864,1536,25.99915,
1984,default,block1,charley,projective,0.03,6654,say,9,say,C,[],24,Yes,none,Female,english,Chrome,Windows,864,1536,25.99915,
1984,default,block1,jon,projective,0.65,7535,think,10,think,C,[],24,Yes,none,Female,english,Chrome,Windows,864,1536,25.99915,
1984,default,block1,pizza,projective,0.97,9266,MC,11,MC,MC,[],24,Yes,none,Female,english,Chrome,Windows,864,1536,25.99915,
1984,default,block1,julian,projective,0.02,217105,confirm,12,confirm,C,[],24,Yes,none,Female,english,Chrome,Windows,864,1536,25.99915,
1984,default,block1,muffins,projective,0.96,4540,MC,13,MC,MC,[],24,Yes,none,Female,english,Chrome,Windows,864,1536,25.99915,
1984,default,block1,jackson,projective,0.53,6850,know,14,know,C,[],24,Yes,none,Female,english,Chrome,Windows,864,1536,25.99915,
1984,default,block1,sophia,projective,0.97,6560,confess,15,confess,C,[],24,Yes,none,Female,english,Chrome,Windows,864,1536,25.99915,
1984,default,block1,josie,projective,0.99,5530,see,16,see,C,[],24,Yes,none,Female,english,Chrome,Windows,864,1536,25.99915,
1984,default,block1,grace,projective,0.98,7480,admit,17,admit,C,[],24,Yes,none,Female,english,Chrome,Windows,864,1536,25.99915,
1984,default,block1,josh,projective,0.12,77253,suggest,18,suggest,C,[],24,Yes,none,Female,english,Chrome,Windows,864,1536,25.99915,
1984,default,block1,zoe,projective,0.04,5840,demonstrate,19,demonstrate,C,[],24,Yes,none,Female,english,Chrome,Windows,864,1536,25.99915,
1984,default,block1,mary,projective,0.31,5538,announce,20,announce,C,[],24,Yes,none,Female,english,Chrome,Windows,864,1536,25.99915,
1984,default,block1,garage,projective,0.86,24854,MC,21,MC,MC,[],24,Yes,none,Female,english,Chrome,Windows,864,1536,25.99915,
1984,default,block1,isabella,projective,0.1,787090,reveal,22,reveal,C,[],24,Yes,none,Female,english,Chrome,Windows,864,1536,25.99915,
1984,default,block1,ballet,projective,0.97,4935,MC,23,MC,MC,[],24,Yes,none,Female,english,Chrome,Windows,864,1536,25.99915,
1984,default,block1,danny,projective,0.14,4832,hear,24,hear,C,[],24,Yes,none,Female,english,Chrome,Windows,864,1536,25.99915,
1984,default,block1,jayden,projective,0.04,5018,discover,25,discover,C,[],24,Yes,none,Female,english,Chrome,Windows,864,1536,25.99915,
1984,default,block1,emma,projective,0.05,10229,be_right,26,be_right,C,[],24,Yes,none,Female,english,Chrome,Windows,864,1536,25.99915,
1984,default,block1,mia,projective,0.02,6182,pretend,27,pretend,C,[],24,Yes,none,Female,english,Chrome,Windows,864,1536,25.99915,
1984,default,block1,tony,projective,0.03,9136,acknowledge,28,acknowledge,C,[],24,Yes,none,Female,english,Chrome,Windows,864,1536,25.99915,
1984,default,block1,owen,projective,0.01,6190,prove,29,prove,C,[],24,Yes,none,Female,english,Chrome,Windows,864,1536,25.99915,
1984,default,block1,emily,projective,0.49,7447,inform,30,inform,C,[],24,Yes,none,Female,english,Chrome,Windows,864,1536,25.99915,
1984,default,block2,garage,ai,0.49,13961,MC,32,MC,MC,[],24,Yes,none,Female,english,Chrome,Windows,864,1536,25.99915,
1984,default,block2,grace,ai,0.08,9793,admit,33,admit,C,[],24,Yes,none,Female,english,Chrome,Windows,864,1536,25.99915,
1984,default,block2,pizza,ai,0.97,11193,MC,34,MC,MC,[],24,Yes,none,Female,english,Chrome,Windows,864,1536,25.99915,
1984,default,block2,muffins,ai,0.93,5226,MC,35,MC,MC,[],24,Yes,none,Female,english,Chrome,Windows,864,1536,25.99915,
1984,default,block2,danny,ai,0.07,6397,hear,36,hear,C,[],24,Yes,none,Female,english,Chrome,Windows,864,1536,25.99915,
1984,default,block2,sophia,ai,0.04,7341,confess,37,confess,C,[],24,Yes,none,Female,english,Chrome,Windows,864,1536,25.99915,
1984,default,block2,jayden,ai,0.09,106455,discover,38,discover,C,[],24,Yes,none,Female,english,Chrome,Windows,864,1536,25.99915,
1984,default,block2,emma,ai,0.05,5413,be_right,39,be_right,C,[],24,Yes,none,Female,english,Chrome,Windows,864,1536,25.99915,
1984,default,block2,tony,ai,0.93,4210,acknowledge,40,acknowledge,C,[],24,Yes,none,Female,english,Chrome,Windows,864,1536,25.99915,
1984,default,block2,isabella,ai,0.03,8220,reveal,41,reveal,C,[],24,Yes,none,Female,english,Chrome,Windows,864,1536,25.99915,
1984,default,block2,josh,ai,0.04,6574,suggest,42,suggest,C,[],24,Yes,none,Female,english,Chrome,Windows,864,1536,25.99915,
1984,default,block2,jon,ai,0.03,5762,think,43,think,C,[],24,Yes,none,Female,english,Chrome,Windows,864,1536,25.99915,
1984,default,block2,julian,ai,0.03,3559,confirm,44,confirm,C,[],24,Yes,none,Female,english,Chrome,Windows,864,1536,25.99915,
1984,default,block2,olivia,ai,0.08,4100,establish,45,establish,C,[],24,Yes,none,Female,english,Chrome,Windows,864,1536,25.99915,
1984,default,block2,ballet,ai,0.97,3917,MC,46,MC,MC,[],24,Yes,none,Female,english,Chrome,Windows,864,1536,25.99915,
1984,default,block2,mia,ai,0.05,3590,pretend,47,pretend,C,[],24,Yes,none,Female,english,Chrome,Windows,864,1536,25.99915,
1984,default,block2,frank,ai,0,12013,be_annoyed,48,be_annoyed,C,[],24,Yes,none,Female,english,Chrome,Windows,864,1536,25.99915,
1984,default,block2,jackson,ai,0.03,3500,know,49,know,C,[],24,Yes,none,Female,english,Chrome,Windows,864,1536,25.99915,
1984,default,block2,hat,ai,0.97,4729,MC,50,MC,MC,[],24,Yes,none,Female,english,Chrome,Windows,864,1536,25.99915,
1984,default,block2,josie,ai,0.02,4353,see,51,see,C,[],24,Yes,none,Female,english,Chrome,Windows,864,1536,25.99915,
1984,default,block2,kids,ai,0.97,3980,MC,52,MC,MC,[],24,Yes,none,Female,english,Chrome,Windows,864,1536,25.99915,
1984,default,block2,mary,ai,0.01,4389,announce,53,announce,C,[],24,Yes,none,Female,english,Chrome,Windows,864,1536,25.99915,
1984,default,block2,charley,ai,0.02,2154,say,54,say,C,[],24,Yes,none,Female,english,Chrome,Windows,864,1536,25.99915,
1984,default,block2,zoe,ai,0.02,1991,demonstrate,55,demonstrate,C,[],24,Yes,none,Female,english,Chrome,Windows,864,1536,25.99915,
1984,default,block2,emily,ai,0,2273,inform,56,inform,C,[],24,Yes,none,Female,english,Chrome,Windows,864,1536,25.99915,
1984,default,block2,owen,ai,0.03,1790,prove,57,prove,C,[],24,Yes,none,Female,english,Chrome,Windows,864,1536,25.99915,
1771,default,block1,olivia,ai,0.82,27456,establish,5,establish,C,[],20,Yes,,Female,"English, Chinese",Chrome,Windows,908,1614,5.1399333333333335,
1771,default,block1,jayden,ai,0.46,11128,be_right,6,be_right,C,[],20,Yes,,Female,"English, Chinese",Chrome,Windows,908,1614,5.1399333333333335,
1771,default,block1,tony,ai,0.79,6208,announce,7,announce,C,[],20,Yes,,Female,"English, Chinese",Chrome,Windows,908,1614,5.1399333333333335,
1771,default,block1,sophia,ai,0.76,3848,know,8,know,C,[],20,Yes,,Female,"English, Chinese",Chrome,Windows,908,1614,5.1399333333333335,
1771,default,block1,mary,ai,0.77,3496,discover,9,discover,C,[],20,Yes,,Female,"English, Chinese",Chrome,Windows,908,1614,5.1399333333333335,
1771,default,block1,isabella,ai,0.74,8120,demonstrate,10,demonstrate,C,[],20,Yes,,Female,"English, Chinese",Chrome,Windows,908,1614,5.1399333333333335,
1771,default,block1,emily,ai,0.72,2928,see,11,see,C,[],20,Yes,,Female,"English, Chinese",Chrome,Windows,908,1614,5.1399333333333335,
1771,default,block1,frank,ai,0.32,8256,suggest,12,suggest,C,[],20,Yes,,Female,"English, Chinese",Chrome,Windows,908,1614,5.1399333333333335,
1771,default,block1,charley,ai,0.42,6000,be_annoyed,13,be_annoyed,C,[],20,Yes,,Female,"English, Chinese",Chrome,Windows,908,1614,5.1399333333333335,
1771,default,block1,josie,ai,0.37,9992,think,14,think,C,[],20,Yes,,Female,"English, Chinese",Chrome,Windows,908,1614,5.1399333333333335,
1771,default,block1,grace,ai,0.35,6744,inform,15,inform,C,[],20,Yes,,Female,"English, Chinese",Chrome,Windows,908,1614,5.1399333333333335,
1771,default,block1,zoe,ai,0.59,4968,acknowledge,16,acknowledge,C,[],20,Yes,,Female,"English, Chinese",Chrome,Windows,908,1614,5.1399333333333335,
1771,default,block1,pizza,ai,0.81,5184,MC,17,MC,MC,[],20,Yes,,Female,"English, Chinese",Chrome,Windows,908,1614,5.1399333333333335,
1771,default,block1,jackson,ai,0.65,3832,hear,18,hear,C,[],20,Yes,,Female,"English, Chinese",Chrome,Windows,908,1614,5.1399333333333335,
1771,default,block1,josh,ai,0.68,7128,confess,19,confess,C,[],20,Yes,,Female,"English, Chinese",Chrome,Windows,908,1614,5.1399333333333335,
1771,default,block1,ballet,ai,0.94,7208,MC,20,MC,MC,[],20,Yes,,Female,"English, Chinese",Chrome,Windows,908,1614,5.1399333333333335,
1771,default,block1,julian,ai,0.68,2984,say,21,say,C,[],20,Yes,,Female,"English, Chinese",Chrome,Windows,908,1614,5.1399333333333335,
1771,default,block1,mia,ai,0.54,4776,prove,22,prove,C,[],20,Yes,,Female,"English, Chinese",Chrome,Windows,908,1614,5.1399333333333335,
1771,default,block1,kids,ai,0.93,4343,MC,23,MC,MC,[],20,Yes,,Female,"English, Chinese",Chrome,Windows,908,1614,5.1399333333333335,
1771,default,block1,emma,ai,0.41,3224,pretend,24,pretend,C,[],20,Yes,,Female,"English, Chinese",Chrome,Windows,908,1614,5.1399333333333335,
1771,default,block1,muffins,ai,0.78,3536,MC,25,MC,MC,[],20,Yes,,Female,"English, Chinese",Chrome,Windows,908,1614,5.1399333333333335,
1771,default,block1,garage,ai,0.71,4024,MC,26,MC,MC,[],20,Yes,,Female,"English, Chinese",Chrome,Windows,908,1614,5.1399333333333335,
1771,default,block1,jon,ai,0.56,4760,confirm,27,confirm,C,[],20,Yes,,Female,"English, Chinese",Chrome,Windows,908,1614,5.1399333333333335,
1771,default,block1,danny,ai,0.74,3240,admit,28,admit,C,[],20,Yes,,Female,"English, Chinese",Chrome,Windows,908,1614,5.1399333333333335,
1771,default,block1,hat,ai,0.71,3064,MC,29,MC,MC,[],20,Yes,,Female,"English, Chinese",Chrome,Windows,908,1614,5.1399333333333335,
1771,default,block1,owen,ai,0.58,1440,reveal,30,reveal,C,[],20,Yes,,Female,"English, Chinese",Chrome,Windows,908,1614,5.1399333333333335,
1771,default,block2,isabella,projective,0.42,7208,demonstrate,32,demonstrate,C,[],20,Yes,,Female,"English, Chinese",Chrome,Windows,908,1614,5.1399333333333335,
1771,default,block2,jon,projective,0.33,2952,confirm,33,confirm,C,[],20,Yes,,Female,"English, Chinese",Chrome,Windows,908,1614,5.1399333333333335,
1771,default,block2,owen,projective,0.26,3640,reveal,34,reveal,C,[],20,Yes,,Female,"English, Chinese",Chrome,Windows,908,1614,5.1399333333333335,
1771,default,block2,mia,projective,0.33,1832,prove,35,prove,C,[],20,Yes,,Female,"English, Chinese",Chrome,Windows,908,1614,5.1399333333333335,
1771,default,block2,charley,projective,0.31,2896,be_annoyed,36,be_annoyed,C,[],20,Yes,,Female,"English, Chinese",Chrome,Windows,908,1614,5.1399333333333335,
1771,default,block2,pizza,projective,0.67,4968,MC,37,MC,MC,[],20,Yes,,Female,"English, Chinese",Chrome,Windows,908,1614,5.1399333333333335,
1771,default,block2,jayden,projective,0.45,3808,be_right,38,be_right,C,[],20,Yes,,Female,"English, Chinese",Chrome,Windows,908,1614,5.1399333333333335,
1771,default,block2,josh,projective,0.67,5448,confess,39,confess,C,[],20,Yes,,Female,"English, Chinese",Chrome,Windows,908,1614,5.1399333333333335,
1771,default,block2,emma,projective,0.36,4760,pretend,40,pretend,C,[],20,Yes,,Female,"English, Chinese",Chrome,Windows,908,1614,5.1399333333333335,
1771,default,block2,frank,projective,0.45,4112,suggest,41,suggest,C,[],20,Yes,,Female,"English, Chinese",Chrome,Windows,908,1614,5.1399333333333335,
1771,default,block2,muffins,projective,0.92,3760,MC,42,MC,MC,[],20,Yes,,Female,"English, Chinese",Chrome,Windows,908,1614,5.1399333333333335,
1771,default,block2,olivia,projective,0.36,3856,establish,43,establish,C,[],20,Yes,,Female,"English, Chinese",Chrome,Windows,908,1614,5.1399333333333335,
1771,default,block2,sophia,projective,0.61,4431,know,44,know,C,[],20,Yes,,Female,"English, Chinese",Chrome,Windows,908,1614,5.1399333333333335,
1771,default,block2,zoe,projective,0.65,5168,acknowledge,45,acknowledge,C,[],20,Yes,,Female,"English, Chinese",Chrome,Windows,908,1614,5.1399333333333335,
1771,default,block2,tony,projective,0.73,3056,announce,46,announce,C,[],20,Yes,,Female,"English, Chinese",Chrome,Windows,908,1614,5.1399333333333335,
1771,default,block2,ballet,projective,0.92,3784,MC,47,MC,MC,[],20,Yes,,Female,"English, Chinese",Chrome,Windows,908,1614,5.1399333333333335,
1771,default,block2,jackson,projective,0.42,3043,hear,48,hear,C,[],20,Yes,,Female,"English, Chinese",Chrome,Windows,908,1614,5.1399333333333335,
1771,default,block2,grace,projective,0.39,3704,inform,49,inform,C,[],20,Yes,,Female,"English, Chinese",Chrome,Windows,908,1614,5.1399333333333335,
1771,default,block2,julian,projective,0.55,1671,say,50,say,C,[],20,Yes,,Female,"English, Chinese",Chrome,Windows,908,1614,5.1399333333333335,
1771,default,block2,josie,projective,0.31,3376,think,51,think,C,[],20,Yes,,Female,"English, Chinese",Chrome,Windows,908,1614,5.1399333333333335,
1771,default,block2,mary,projective,0.28,1959,discover,52,discover,C,[],20,Yes,,Female,"English, Chinese",Chrome,Windows,908,1614,5.1399333333333335,
1771,default,block2,hat,projective,0.73,3392,MC,53,MC,MC,[],20,Yes,,Female,"English, Chinese",Chrome,Windows,908,1614,5.1399333333333335,
1771,default,block2,kids,projective,0.82,2809,MC,54,MC,MC,[],20,Yes,,Female,"English, Chinese",Chrome,Windows,908,1614,5.1399333333333335,
1771,default,block2,garage,projective,0.75,2111,MC,55,MC,MC,[],20,Yes,,Female,"English, Chinese",Chrome,Windows,908,1614,5.1399333333333335,
1771,default,block2,danny,projective,0.37,2224,admit,56,admit,C,[],20,Yes,,Female,"English, Chinese",Chrome,Windows,908,1614,5.1399333333333335,
1771,default,block2,emily,projective,0.37,1792,see,57,see,C,[],20,Yes,,Female,"English, Chinese",Chrome,Windows,908,1614,5.1399333333333335,
1864,default,block1,josh,ai,0.11,23286,know,5,know,C,[],26,Yes,,Male,English,Safari,Mac,900,1440,7.682883333333334,
1864,default,block1,pizza,ai,0.09,12686,MC,6,MC,MC,[],26,Yes,,Male,English,Safari,Mac,900,1440,7.682883333333334,
1864,default,block1,kids,ai,0.06,9842,MC,7,MC,MC,[],26,Yes,,Male,English,Safari,Mac,900,1440,7.682883333333334,
1864,default,block1,danny,ai,0,6969,prove,8,prove,C,[],26,Yes,,Male,English,Safari,Mac,900,1440,7.682883333333334,
1864,default,block1,tony,ai,0.06,7942,see,9,see,C,[],26,Yes,,Male,English,Safari,Mac,900,1440,7.682883333333334,
1864,default,block1,grace,ai,0.3,16307,establish,10,establish,C,[],26,Yes,,Male,English,Safari,Mac,900,1440,7.682883333333334,
1864,default,block1,ballet,ai,0,9855,MC,11,MC,MC,[],26,Yes,,Male,English,Safari,Mac,900,1440,7.682883333333334,
1864,default,block1,emma,ai,0.07,16918,hear,12,hear,C,[],26,Yes,,Male,English,Safari,Mac,900,1440,7.682883333333334,
1864,default,block1,frank,ai,0.23,17807,admit,13,admit,C,[],26,Yes,,Male,English,Safari,Mac,900,1440,7.682883333333334,
1864,default,block1,sophia,ai,0.09,6349,think,14,think,C,[],26,Yes,,Male,English,Safari,Mac,900,1440,7.682883333333334,
1864,default,block1,josie,ai,0.16,4671,reveal,15,reveal,C,[],26,Yes,,Male,English,Safari,Mac,900,1440,7.682883333333334,
1864,default,block1,hat,ai,0.33,6278,MC,16,MC,MC,[],26,Yes,,Male,English,Safari,Mac,900,1440,7.682883333333334,
1864,default,block1,jackson,ai,0.49,5421,announce,17,announce,C,[],26,Yes,,Male,English,Safari,Mac,900,1440,7.682883333333334,
1864,default,block1,zoe,ai,0.52,10374,discover,18,discover,C,[],26,Yes,,Male,English,Safari,Mac,900,1440,7.682883333333334,
1864,default,block1,jayden,ai,0.55,3652,say,19,say,C,[],26,Yes,,Male,English,Safari,Mac,900,1440,7.682883333333334,
1864,default,block1,mary,ai,0.4,3791,confirm,20,confirm,C,[],26,Yes,,Male,English,Safari,Mac,900,1440,7.682883333333334,
1864,default,block1,garage,ai,0.44,8535,MC,21,MC,MC,[],26,Yes,,Male,English,Safari,Mac,900,1440,7.682883333333334,
1864,default,block1,isabella,ai,0.15,5896,confess,22,confess,C,[],26,Yes,,Male,English,Safari,Mac,900,1440,7.682883333333334,
1864,default,block1,muffins,ai,0.32,7568,MC,23,MC,MC,[],26,Yes,,Male,English,Safari,Mac,900,1440,7.682883333333334,
1864,default,block1,julian,ai,0,6115,be_right,24,be_right,C,[],26,Yes,,Male,English,Safari,Mac,900,1440,7.682883333333334,
1864,default,block1,charley,ai,0.72,5812,acknowledge,25,acknowledge,C,[],26,Yes,,Male,English,Safari,Mac,900,1440,7.682883333333334,
1864,default,block1,owen,ai,0,34721,pretend,26,pretend,C,[],26,Yes,,Male,English,Safari,Mac,900,1440,7.682883333333334,
1864,default,block1,mia,ai,0.41,10396,be_annoyed,27,be_annoyed,C,[],26,Yes,,Male,English,Safari,Mac,900,1440,7.682883333333334,
1864,default,block1,jon,ai,0.33,8593,demonstrate,28,demonstrate,C,[],26,Yes,,Male,English,Safari,Mac,900,1440,7.682883333333334,
1864,default,block1,olivia,ai,0.52,4624,inform,29,inform,C,[],26,Yes,,Male,English,Safari,Mac,900,1440,7.682883333333334,
1864,default,block1,emily,ai,0.62,3821,suggest,30,suggest,C,[],26,Yes,,Male,English,Safari,Mac,900,1440,7.682883333333334,
1864,default,block2,olivia,projective,1,9604,inform,32,inform,C,[],26,Yes,,Male,English,Safari,Mac,900,1440,7.682883333333334,
1864,default,block2,ballet,projective,1,5553,MC,33,MC,MC,[],26,Yes,,Male,English,Safari,Mac,900,1440,7.682883333333334,
1864,default,block2,mia,projective,1,4061,be_annoyed,34,be_annoyed,C,[],26,Yes,,Male,English,Safari,Mac,900,1440,7.682883333333334,
1864,default,block2,zoe,projective,1,4416,discover,35,discover,C,[],26,Yes,,Male,English,Safari,Mac,900,1440,7.682883333333334,
1864,default,block2,isabella,projective,1,3336,confess,36,confess,C,[],26,Yes,,Male,English,Safari,Mac,900,1440,7.682883333333334,
1864,default,block2,josie,projective,1,3877,reveal,37,reveal,C,[],26,Yes,,Male,English,Safari,Mac,900,1440,7.682883333333334,
1864,default,block2,jon,projective,1,3366,demonstrate,38,demonstrate,C,[],26,Yes,,Male,English,Safari,Mac,900,1440,7.682883333333334,
1864,default,block2,sophia,projective,1,6851,think,39,think,C,[],26,Yes,,Male,English,Safari,Mac,900,1440,7.682883333333334,
1864,default,block2,josh,projective,1,5531,know,40,know,C,[],26,Yes,,Male,English,Safari,Mac,900,1440,7.682883333333334,
1864,default,block2,pizza,projective,1,4108,MC,41,MC,MC,[],26,Yes,,Male,English,Safari,Mac,900,1440,7.682883333333334,
1864,default,block2,mary,projective,0,6951,confirm,42,confirm,C,[],26,Yes,,Male,English,Safari,Mac,900,1440,7.682883333333334,
1864,default,block2,danny,projective,0,6593,prove,43,prove,C,[],26,Yes,,Male,English,Safari,Mac,900,1440,7.682883333333334,
1864,default,block2,charley,projective,1,5038,acknowledge,44,acknowledge,C,[],26,Yes,,Male,English,Safari,Mac,900,1440,7.682883333333334,
1864,default,block2,jayden,projective,0,5639,say,45,say,C,[],26,Yes,,Male,English,Safari,Mac,900,1440,7.682883333333334,
1864,default,block2,jackson,projective,0.5,8344,announce,46,announce,C,[],26,Yes,,Male,English,Safari,Mac,900,1440,7.682883333333334,
1864,default,block2,garage,projective,1,4332,MC,47,MC,MC,[],26,Yes,,Male,English,Safari,Mac,900,1440,7.682883333333334,
1864,default,block2,julian,projective,0,6566,be_right,48,be_right,C,[],26,Yes,,Male,English,Safari,Mac,900,1440,7.682883333333334,
1864,default,block2,kids,projective,1,4394,MC,49,MC,MC,[],26,Yes,,Male,English,Safari,Mac,900,1440,7.682883333333334,
1864,default,block2,grace,projective,0.17,5979,establish,50,establish,C,[],26,Yes,,Male,English,Safari,Mac,900,1440,7.682883333333334,
1864,default,block2,muffins,projective,1,2838,MC,51,MC,MC,[],26,Yes,,Male,English,Safari,Mac,900,1440,7.682883333333334,
1864,default,block2,owen,projective,0.49,4672,pretend,52,pretend,C,[],26,Yes,,Male,English,Safari,Mac,900,1440,7.682883333333334,
1864,default,block2,hat,projective,1,3102,MC,53,MC,MC,[],26,Yes,,Male,English,Safari,Mac,900,1440,7.682883333333334,
1864,default,block2,emily,projective,0.4,4460,suggest,54,suggest,C,[],26,Yes,,Male,English,Safari,Mac,900,1440,7.682883333333334,
1864,default,block2,emma,projective,0.51,7594,hear,55,hear,C,[],26,Yes,,Male,English,Safari,Mac,900,1440,7.682883333333334,
1864,default,block2,tony,projective,0.72,3196,see,56,see,C,[],26,Yes,,Male,English,Safari,Mac,900,1440,7.682883333333334,
1864,default,block2,frank,projective,0.54,4529,admit,57,admit,C,[],26,Yes,,Male,English,Safari,Mac,900,1440,7.682883333333334,
1931,default,block1,danny,ai,0.23,447559,acknowledge,5,acknowledge,C,[],34,Yes,No comments.,Male,English,Firefox,Windows,1080,1920,12.398533333333331,
1931,default,block1,owen,ai,0.26,1599,think,6,think,C,[],34,Yes,No comments.,Male,English,Firefox,Windows,1080,1920,12.398533333333331,
1931,default,block1,sophia,ai,0.25,1528,discover,7,discover,C,[],34,Yes,No comments.,Male,English,Firefox,Windows,1080,1920,12.398533333333331,
1931,default,block1,mia,ai,0.3,1969,see,8,see,C,[],34,Yes,No comments.,Male,English,Firefox,Windows,1080,1920,12.398533333333331,
1931,default,block1,pizza,ai,0.3,1672,MC,9,MC,MC,[],34,Yes,No comments.,Male,English,Firefox,Windows,1080,1920,12.398533333333331,
1931,default,block1,emily,ai,0.25,1727,inform,10,inform,C,[],34,Yes,No comments.,Male,English,Firefox,Windows,1080,1920,12.398533333333331,
1931,default,block1,zoe,ai,0.32,1656,establish,11,establish,C,[],34,Yes,No comments.,Male,English,Firefox,Windows,1080,1920,12.398533333333331,
1931,default,block1,charley,ai,0.26,1457,confirm,12,confirm,C,[],34,Yes,No comments.,Male,English,Firefox,Windows,1080,1920,12.398533333333331,
1931,default,block1,garage,ai,0.74,2384,MC,13,MC,MC,[],34,Yes,No comments.,Male,English,Firefox,Windows,1080,1920,12.398533333333331,
1931,default,block1,josie,ai,0.29,1815,be_annoyed,14,be_annoyed,C,[],34,Yes,No comments.,Male,English,Firefox,Windows,1080,1920,12.398533333333331,
1931,default,block1,kids,ai,0.75,2368,MC,15,MC,MC,[],34,Yes,No comments.,Male,English,Firefox,Windows,1080,1920,12.398533333333331,
1931,default,block1,olivia,ai,0.28,1872,admit,16,admit,C,[],34,Yes,No comments.,Male,English,Firefox,Windows,1080,1920,12.398533333333331,
1931,default,block1,jayden,ai,0.28,7008,be_right,17,be_right,C,[],34,Yes,No comments.,Male,English,Firefox,Windows,1080,1920,12.398533333333331,
1931,default,block1,ballet,ai,0.74,3737,MC,18,MC,MC,[],34,Yes,No comments.,Male,English,Firefox,Windows,1080,1920,12.398533333333331,
1931,default,block1,jackson,ai,0.33,1863,announce,19,announce,C,[],34,Yes,No comments.,Male,English,Firefox,Windows,1080,1920,12.398533333333331,
1931,default,block1,frank,ai,0.29,1897,hear,20,hear,C,[],34,Yes,No comments.,Male,English,Firefox,Windows,1080,1920,12.398533333333331,
1931,default,block1,muffins,ai,0.73,2831,MC,21,MC,MC,[],34,Yes,No comments.,Male,English,Firefox,Windows,1080,1920,12.398533333333331,
1931,default,block1,jon,ai,0.23,1688,confess,22,confess,C,[],34,Yes,No comments.,Male,English,Firefox,Windows,1080,1920,12.398533333333331,
1931,default,block1,josh,ai,0.3,1591,suggest,23,suggest,C,[],34,Yes,No comments.,Male,English,Firefox,Windows,1080,1920,12.398533333333331,
1931,default,block1,tony,ai,0.32,1440,say,24,say,C,[],34,Yes,No comments.,Male,English,Firefox,Windows,1080,1920,12.398533333333331,
1931,default,block1,mary,ai,0.29,1720,prove,25,prove,C,[],34,Yes,No comments.,Male,English,Firefox,Windows,1080,1920,12.398533333333331,
1931,default,block1,julian,ai,0.26,1856,pretend,26,pretend,C,[],34,Yes,No comments.,Male,English,Firefox,Windows,1080,1920,12.398533333333331,
1931,default,block1,isabella,ai,0.23,1729,demonstrate,27,demonstrate,C,[],34,Yes,No comments.,Male,English,Firefox,Windows,1080,1920,12.398533333333331,
1931,default,block1,hat,ai,0.72,2047,MC,28,MC,MC,[],34,Yes,No comments.,Male,English,Firefox,Windows,1080,1920,12.398533333333331,
1931,default,block1,grace,ai,0.21,2066,reveal,29,reveal,C,[],34,Yes,No comments.,Male,English,Firefox,Windows,1080,1920,12.398533333333331,
1931,default,block1,emma,ai,0.25,1806,know,30,know,C,[],34,Yes,No comments.,Male,English,Firefox,Windows,1080,1920,12.398533333333331,
1931,default,block2,charley,projective,0.25,4888,confirm,32,confirm,C,[],34,Yes,No comments.,Male,English,Firefox,Windows,1080,1920,12.398533333333331,
1931,default,block2,owen,projective,0.25,4278,think,33,think,C,[],34,Yes,No comments.,Male,English,Firefox,Windows,1080,1920,12.398533333333331,
1931,default,block2,josie,projective,0.24,1352,be_annoyed,34,be_annoyed,C,[],34,Yes,No comments.,Male,English,Firefox,Windows,1080,1920,12.398533333333331,
1931,default,block2,zoe,projective,0.31,1736,establish,35,establish,C,[],34,Yes,No comments.,Male,English,Firefox,Windows,1080,1920,12.398533333333331,
1931,default,block2,tony,projective,0.27,2905,say,36,say,C,[],34,Yes,No comments.,Male,English,Firefox,Windows,1080,1920,12.398533333333331,
1931,default,block2,danny,projective,0.19,1623,acknowledge,37,acknowledge,C,[],34,Yes,No comments.,Male,English,Firefox,Windows,1080,1920,12.398533333333331,
1931,default,block2,emma,projective,0.24,1817,know,38,know,C,[],34,Yes,No comments.,Male,English,Firefox,Windows,1080,1920,12.398533333333331,
1931,default,block2,jon,projective,0.24,1543,confess,39,confess,C,[],34,Yes,No comments.,Male,English,Firefox,Windows,1080,1920,12.398533333333331,
1931,default,block2,muffins,projective,0.78,2560,MC,40,MC,MC,[],34,Yes,No comments.,Male,English,Firefox,Windows,1080,1920,12.398533333333331,
1931,default,block2,josh,projective,0.21,2287,suggest,41,suggest,C,[],34,Yes,No comments.,Male,English,Firefox,Windows,1080,1920,12.398533333333331,
1931,default,block2,isabella,projective,0.22,1401,demonstrate,42,demonstrate,C,[],34,Yes,No comments.,Male,English,Firefox,Windows,1080,1920,12.398533333333331,
1931,default,block2,garage,projective,0.71,1791,MC,43,MC,MC,[],34,Yes,No comments.,Male,English,Firefox,Windows,1080,1920,12.398533333333331,
1931,default,block2,olivia,projective,0.19,1768,admit,44,admit,C,[],34,Yes,No comments.,Male,English,Firefox,Windows,1080,1920,12.398533333333331,
1931,default,block2,mia,projective,0.2,2016,see,45,see,C,[],34,Yes,No comments.,Male,English,Firefox,Windows,1080,1920,12.398533333333331,
1931,default,block2,pizza,projective,0.77,2672,MC,46,MC,MC,[],34,Yes,No comments.,Male,English,Firefox,Windows,1080,1920,12.398533333333331,
1931,default,block2,hat,projective,0.85,2088,MC,47,MC,MC,[],34,Yes,No comments.,Male,English,Firefox,Windows,1080,1920,12.398533333333331,
1931,default,block2,jayden,projective,0.12,1776,be_right,48,be_right,C,[],34,Yes,No comments.,Male,English,Firefox,Windows,1080,1920,12.398533333333331,
1931,default,block2,julian,projective,0.16,1697,pretend,49,pretend,C,[],34,Yes,No comments.,Male,English,Firefox,Windows,1080,1920,12.398533333333331,
1931,default,block2,grace,projective,0.22,1712,reveal,50,reveal,C,[],34,Yes,No comments.,Male,English,Firefox,Windows,1080,1920,12.398533333333331,
1931,default,block2,sophia,projective,0.18,1672,discover,51,discover,C,[],34,Yes,No comments.,Male,English,Firefox,Windows,1080,1920,12.398533333333331,
1931,default,block2,ballet,projective,0.8,1903,MC,52,MC,MC,[],34,Yes,No comments.,Male,English,Firefox,Windows,1080,1920,12.398533333333331,
1931,default,block2,jackson,projective,0.23,1840,announce,53,announce,C,[],34,Yes,No comments.,Male,English,Firefox,Windows,1080,1920,12.398533333333331,
1931,default,block2,emily,projective,0.2,2153,inform,54,inform,C,[],34,Yes,No comments.,Male,English,Firefox,Windows,1080,1920,12.398533333333331,
1931,default,block2,mary,projective,0.2,2000,prove,55,prove,C,[],34,Yes,No comments.,Male,English,Firefox,Windows,1080,1920,12.398533333333331,
1931,default,block2,frank,projective,0.14,1735,hear,56,hear,C,[],34,Yes,No comments.,Male,English,Firefox,Windows,1080,1920,12.398533333333331,
1931,default,block2,kids,projective,0.83,3297,MC,57,MC,MC,[],34,Yes,No comments.,Male,English,Firefox,Windows,1080,1920,12.398533333333331,
1782,default,block1,hat,projective,0.97,7863,MC,5,MC,MC,[],26,Yes,,Female,English ,Chrome,Windows,1080,1920,7.7219,
1782,default,block1,josh,projective,0.88,10000,hear,6,hear,C,[],26,Yes,,Female,English ,Chrome,Windows,1080,1920,7.7219,
1782,default,block1,grace,projective,0.14,8696,suggest,7,suggest,C,[],26,Yes,,Female,English ,Chrome,Windows,1080,1920,7.7219,
1782,default,block1,mary,projective,0.9,6304,know,8,know,C,[],26,Yes,,Female,English ,Chrome,Windows,1080,1920,7.7219,
1782,default,block1,zoe,projective,0.05,7808,announce,9,announce,C,[],26,Yes,,Female,English ,Chrome,Windows,1080,1920,7.7219,
1782,default,block1,jon,projective,0.9,7968,be_annoyed,10,be_annoyed,C,[],26,Yes,,Female,English ,Chrome,Windows,1080,1920,7.7219,
1782,default,block1,tony,projective,0.91,10656,discover,11,discover,C,[],26,Yes,,Female,English ,Chrome,Windows,1080,1920,7.7219,
1782,default,block1,olivia,projective,0.01,9439,pretend,12,pretend,C,[],26,Yes,,Female,English ,Chrome,Windows,1080,1920,7.7219,
1782,default,block1,kids,projective,0.89,7952,MC,13,MC,MC,[],26,Yes,,Female,English ,Chrome,Windows,1080,1920,7.7219,
1782,default,block1,josie,projective,0.1,7992,be_right,14,be_right,C,[],26,Yes,,Female,English ,Chrome,Windows,1080,1920,7.7219,
1782,default,block1,emily,projective,0.92,7928,see,15,see,C,[],26,Yes,,Female,English ,Chrome,Windows,1080,1920,7.7219,
1782,default,block1,isabella,projective,0.03,9919,confess,16,confess,C,[],26,Yes,,Female,English ,Chrome,Windows,1080,1920,7.7219,
1782,default,block1,jackson,projective,0.07,4608,confirm,17,confirm,C,[],26,Yes,,Female,English ,Chrome,Windows,1080,1920,7.7219,
1782,default,block1,jayden,projective,0.18,4856,reveal,18,reveal,C,[],26,Yes,,Female,English ,Chrome,Windows,1080,1920,7.7219,
1782,default,block1,julian,projective,0.44,11392,think,19,think,C,[],26,Yes,,Female,English ,Chrome,Windows,1080,1920,7.7219,
1782,default,block1,owen,projective,0.22,10000,admit,20,admit,C,[],26,Yes,,Female,English ,Chrome,Windows,1080,1920,7.7219,
1782,default,block1,danny,projective,0.14,8535,demonstrate,21,demonstrate,C,[],26,Yes,,Female,English ,Chrome,Windows,1080,1920,7.7219,
1782,default,block1,pizza,projective,0.88,6161,MC,22,MC,MC,[],26,Yes,,Female,English ,Chrome,Windows,1080,1920,7.7219,
1782,default,block1,sophia,projective,0.89,6975,inform,23,inform,C,[],26,Yes,,Female,English ,Chrome,Windows,1080,1920,7.7219,
1782,default,block1,charley,projective,0.12,8320,prove,24,prove,C,[],26,Yes,,Female,English ,Chrome,Windows,1080,1920,7.7219,
1782,default,block1,muffins,projective,0.94,7752,MC,25,MC,MC,[],26,Yes,,Female,English ,Chrome,Windows,1080,1920,7.7219,
1782,default,block1,emma,projective,0.12,8048,acknowledge,26,acknowledge,C,[],26,Yes,,Female,English ,Chrome,Windows,1080,1920,7.7219,
1782,default,block1,frank,projective,0.15,6944,say,27,say,C,[],26,Yes,,Female,English ,Chrome,Windows,1080,1920,7.7219,
1782,default,block1,ballet,projective,0.87,5128,MC,28,MC,MC,[],26,Yes,,Female,English ,Chrome,Windows,1080,1920,7.7219,
1782,default,block1,garage,projective,0.94,6744,MC,29,MC,MC,[],26,Yes,,Female,English ,Chrome,Windows,1080,1920,7.7219,
1782,default,block1,mia,projective,0.2,7464,establish,30,establish,C,[],26,Yes,,Female,English ,Chrome,Windows,1080,1920,7.7219,
1782,default,block2,zoe,ai,0.65,10016,announce,32,announce,C,[],26,Yes,,Female,English ,Chrome,Windows,1080,1920,7.7219,
1782,default,block2,josh,ai,0.29,7273,hear,33,hear,C,[],26,Yes,,Female,English ,Chrome,Windows,1080,1920,7.7219,
1782,default,block2,kids,ai,0.83,7824,MC,34,MC,MC,[],26,Yes,,Female,English ,Chrome,Windows,1080,1920,7.7219,
1782,default,block2,frank,ai,0.32,5248,say,35,say,C,[],26,Yes,,Female,English ,Chrome,Windows,1080,1920,7.7219,
1782,default,block2,isabella,ai,0.66,7792,confess,36,confess,C,[],26,Yes,,Female,English ,Chrome,Windows,1080,1920,7.7219,
1782,default,block2,muffins,ai,0.11,5400,MC,37,MC,MC,[],26,Yes,,Female,English ,Chrome,Windows,1080,1920,7.7219,
1782,default,block2,owen,ai,0.87,5216,admit,38,admit,C,[],26,Yes,,Female,English ,Chrome,Windows,1080,1920,7.7219,
1782,default,block2,emily,ai,0.73,5095,see,39,see,C,[],26,Yes,,Female,English ,Chrome,Windows,1080,1920,7.7219,
1782,default,block2,jackson,ai,0.67,5240,confirm,40,confirm,C,[],26,Yes,,Female,English ,Chrome,Windows,1080,1920,7.7219,
1782,default,block2,garage,ai,0.33,9184,MC,41,MC,MC,[],26,Yes,,Female,English ,Chrome,Windows,1080,1920,7.7219,
1782,default,block2,olivia,ai,0.31,6031,pretend,42,pretend,C,[],26,Yes,,Female,English ,Chrome,Windows,1080,1920,7.7219,
1782,default,block2,jayden,ai,0.73,4800,reveal,43,reveal,C,[],26,Yes,,Female,English ,Chrome,Windows,1080,1920,7.7219,
1782,default,block2,mary,ai,0.74,6168,know,44,know,C,[],26,Yes,,Female,English ,Chrome,Windows,1080,1920,7.7219,
1782,default,block2,pizza,ai,0.23,7656,MC,45,MC,MC,[],26,Yes,,Female,English ,Chrome,Windows,1080,1920,7.7219,
1782,default,block2,josie,ai,0.73,8704,be_right,46,be_right,C,[],26,Yes,,Female,English ,Chrome,Windows,1080,1920,7.7219,
1782,default,block2,ballet,ai,0.15,6752,MC,47,MC,MC,[],26,Yes,,Female,English ,Chrome,Windows,1080,1920,7.7219,
1782,default,block2,tony,ai,0.72,6200,discover,48,discover,C,[],26,Yes,,Female,English ,Chrome,Windows,1080,1920,7.7219,
1782,default,block2,charley,ai,0.67,6280,prove,49,prove,C,[],26,Yes,,Female,English ,Chrome,Windows,1080,1920,7.7219,
1782,default,block2,grace,ai,0.72,5128,suggest,50,suggest,C,[],26,Yes,,Female,English ,Chrome,Windows,1080,1920,7.7219,
1782,default,block2,hat,ai,0.37,5840,MC,51,MC,MC,[],26,Yes,,Female,English ,Chrome,Windows,1080,1920,7.7219,
1782,default,block2,sophia,ai,0.68,6008,inform,52,inform,C,[],26,Yes,,Female,English ,Chrome,Windows,1080,1920,7.7219,
1782,default,block2,jon,ai,0.16,5104,be_annoyed,53,be_annoyed,C,[],26,Yes,,Female,English ,Chrome,Windows,1080,1920,7.7219,
1782,default,block2,julian,ai,0.61,9176,think,54,think,C,[],26,Yes,,Female,English ,Chrome,Windows,1080,1920,7.7219,
1782,default,block2,mia,ai,0.66,6864,establish,55,establish,C,[],26,Yes,,Female,English ,Chrome,Windows,1080,1920,7.7219,
1782,default,block2,danny,ai,0.44,7296,demonstrate,56,demonstrate,C,[],26,Yes,,Female,English ,Chrome,Windows,1080,1920,7.7219,
1782,default,block2,emma,ai,0.81,8328,acknowledge,57,acknowledge,C,[],26,Yes,,Female,English ,Chrome,Windows,1080,1920,7.7219,
1727,default,block1,olivia,projective,0.99,10354,see,5,see,C,[],30,Yes,,Female,English,Firefox,Windows,768,1366,8.867383333333333,
1727,default,block1,jayden,projective,1,8782,be_annoyed,6,be_annoyed,C,[],30,Yes,,Female,English,Firefox,Windows,768,1366,8.867383333333333,
1727,default,block1,muffins,projective,0.98,5120,MC,7,MC,MC,[],30,Yes,,Female,English,Firefox,Windows,768,1366,8.867383333333333,
1727,default,block1,emma,projective,0.22,19147,establish,8,establish,C,[],30,Yes,,Female,English,Firefox,Windows,768,1366,8.867383333333333,
1727,default,block1,jackson,projective,0.02,12315,be_right,9,be_right,C,[],30,Yes,,Female,English,Firefox,Windows,768,1366,8.867383333333333,
1727,default,block1,josh,projective,0.99,22762,hear,10,hear,C,[],30,Yes,,Female,English,Firefox,Windows,768,1366,8.867383333333333,
1727,default,block1,sophia,projective,0.25,10157,suggest,11,suggest,C,[],30,Yes,,Female,English,Firefox,Windows,768,1366,8.867383333333333,
1727,default,block1,julian,projective,0.34,10759,confess,12,confess,C,[],30,Yes,,Female,English,Firefox,Windows,768,1366,8.867383333333333,
1727,default,block1,kids,projective,0.97,8764,MC,13,MC,MC,[],30,Yes,,Female,English,Firefox,Windows,768,1366,8.867383333333333,
1727,default,block1,grace,projective,0.69,19828,inform,14,inform,C,[],30,Yes,,Female,English,Firefox,Windows,768,1366,8.867383333333333,
1727,default,block1,emily,projective,0.29,12556,announce,15,announce,C,[],30,Yes,,Female,English,Firefox,Windows,768,1366,8.867383333333333,
1727,default,block1,jon,projective,0,7027,think,16,think,C,[],30,Yes,,Female,English,Firefox,Windows,768,1366,8.867383333333333,
1727,default,block1,tony,projective,0.46,7375,admit,17,admit,C,[],30,Yes,,Female,English,Firefox,Windows,768,1366,8.867383333333333,
1727,default,block1,owen,projective,0.72,7960,acknowledge,18,acknowledge,C,[],30,Yes,,Female,English,Firefox,Windows,768,1366,8.867383333333333,
1727,default,block1,isabella,projective,0.51,7968,demonstrate,19,demonstrate,C,[],30,Yes,,Female,English,Firefox,Windows,768,1366,8.867383333333333,
1727,default,block1,zoe,projective,0.28,8203,reveal,20,reveal,C,[],30,Yes,,Female,English,Firefox,Windows,768,1366,8.867383333333333,
1727,default,block1,mia,projective,1,11999,know,21,know,C,[],30,Yes,,Female,English,Firefox,Windows,768,1366,8.867383333333333,
1727,default,block1,danny,projective,0.18,7576,prove,22,prove,C,[],30,Yes,,Female,English,Firefox,Windows,768,1366,8.867383333333333,
1727,default,block1,hat,projective,1,4346,MC,23,MC,MC,[],30,Yes,,Female,English,Firefox,Windows,768,1366,8.867383333333333,
1727,default,block1,pizza,projective,1,6290,MC,24,MC,MC,[],30,Yes,,Female,English,Firefox,Windows,768,1366,8.867383333333333,
1727,default,block1,ballet,projective,1,7049,MC,25,MC,MC,[],30,Yes,,Female,English,Firefox,Windows,768,1366,8.867383333333333,
1727,default,block1,frank,projective,0,7544,discover,26,discover,C,[],30,Yes,,Female,English,Firefox,Windows,768,1366,8.867383333333333,
1727,default,block1,charley,projective,0.32,7323,confirm,27,confirm,C,[],30,Yes,,Female,English,Firefox,Windows,768,1366,8.867383333333333,
1727,default,block1,mary,projective,0,6722,say,28,say,C,[],30,Yes,,Female,English,Firefox,Windows,768,1366,8.867383333333333,
1727,default,block1,garage,projective,1,5402,MC,29,MC,MC,[],30,Yes,,Female,English,Firefox,Windows,768,1366,8.867383333333333,
1727,default,block1,josie,projective,0.99,6602,pretend,30,pretend,C,[],30,Yes,,Female,English,Firefox,Windows,768,1366,8.867383333333333,
1727,default,block2,julian,ai,0.69,15429,confess,32,confess,C,[],30,Yes,,Female,English,Firefox,Windows,768,1366,8.867383333333333,
1727,default,block2,owen,ai,0.68,9328,acknowledge,33,acknowledge,C,[],30,Yes,,Female,English,Firefox,Windows,768,1366,8.867383333333333,
1727,default,block2,mia,ai,0.37,11598,know,34,know,C,[],30,Yes,,Female,English,Firefox,Windows,768,1366,8.867383333333333,
1727,default,block2,charley,ai,1,4373,confirm,35,confirm,C,[],30,Yes,,Female,English,Firefox,Windows,768,1366,8.867383333333333,
1727,default,block2,isabella,ai,0.68,8118,demonstrate,36,demonstrate,C,[],30,Yes,,Female,English,Firefox,Windows,768,1366,8.867383333333333,
1727,default,block2,jayden,ai,0.01,6402,be_annoyed,37,be_annoyed,C,[],30,Yes,,Female,English,Firefox,Windows,768,1366,8.867383333333333,
1727,default,block2,emily,ai,0.82,6183,announce,38,announce,C,[],30,Yes,,Female,English,Firefox,Windows,768,1366,8.867383333333333,
1727,default,block2,grace,ai,0.71,6619,inform,39,inform,C,[],30,Yes,,Female,English,Firefox,Windows,768,1366,8.867383333333333,
1727,default,block2,hat,ai,1,5346,MC,40,MC,MC,[],30,Yes,,Female,English,Firefox,Windows,768,1366,8.867383333333333,
1727,default,block2,zoe,ai,0.11,6619,reveal,41,reveal,C,[],30,Yes,,Female,English,Firefox,Windows,768,1366,8.867383333333333,
1727,default,block2,ballet,ai,1,3968,MC,42,MC,MC,[],30,Yes,,Female,English,Firefox,Windows,768,1366,8.867383333333333,
1727,default,block2,josie,ai,0.35,6734,pretend,43,pretend,C,[],30,Yes,,Female,English,Firefox,Windows,768,1366,8.867383333333333,
1727,default,block2,jon,ai,0.41,5007,think,44,think,C,[],30,Yes,,Female,English,Firefox,Windows,768,1366,8.867383333333333,
1727,default,block2,olivia,ai,0.22,7316,see,45,see,C,[],30,Yes,,Female,English,Firefox,Windows,768,1366,8.867383333333333,
1727,default,block2,sophia,ai,0.17,4805,suggest,46,suggest,C,[],30,Yes,,Female,English,Firefox,Windows,768,1366,8.867383333333333,
1727,default,block2,jackson,ai,0.2,5250,be_right,47,be_right,C,[],30,Yes,,Female,English,Firefox,Windows,768,1366,8.867383333333333,
1727,default,block2,garage,ai,1,4019,MC,48,MC,MC,[],30,Yes,,Female,English,Firefox,Windows,768,1366,8.867383333333333,
1727,default,block2,mary,ai,0.15,6068,say,49,say,C,[],30,Yes,,Female,English,Firefox,Windows,768,1366,8.867383333333333,
1727,default,block2,kids,ai,1,16554,MC,50,MC,MC,[],30,Yes,,Female,English,Firefox,Windows,768,1366,8.867383333333333,
1727,default,block2,josh,ai,0.64,6383,hear,51,hear,C,[],30,Yes,,Female,English,Firefox,Windows,768,1366,8.867383333333333,
1727,default,block2,danny,ai,0.63,6430,prove,52,prove,C,[],30,Yes,,Female,English,Firefox,Windows,768,1366,8.867383333333333,
1727,default,block2,muffins,ai,1,4179,MC,53,MC,MC,[],30,Yes,,Female,English,Firefox,Windows,768,1366,8.867383333333333,
1727,default,block2,frank,ai,0.61,9084,discover,54,discover,C,[],30,Yes,,Female,English,Firefox,Windows,768,1366,8.867383333333333,
1727,default,block2,pizza,ai,1,5034,MC,55,MC,MC,[],30,Yes,,Female,English,Firefox,Windows,768,1366,8.867383333333333,
1727,default,block2,emma,ai,0.35,7161,establish,56,establish,C,[],30,Yes,,Female,English,Firefox,Windows,768,1366,8.867383333333333,
1727,default,block2,tony,ai,0.63,6737,admit,57,admit,C,[],30,Yes,,Female,English,Firefox,Windows,768,1366,8.867383333333333,
1752,default,block1,isabella,projective,0.02,8109,confirm,5,confirm,C,[],35,Yes,,Male,English,Chrome,Linux,760,360,8.00435,
1752,default,block1,jackson,projective,0.94,26832,inform,6,inform,C,[],35,Yes,,Male,English,Chrome,Linux,760,360,8.00435,
1752,default,block1,julian,projective,0.26,29791,confess,7,confess,C,[],35,Yes,,Male,English,Chrome,Linux,760,360,8.00435,
1752,default,block1,grace,projective,0.03,8469,hear,8,hear,C,[],35,Yes,,Male,English,Chrome,Linux,760,360,8.00435,
1752,default,block1,josh,projective,0.98,11237,be_annoyed,9,be_annoyed,C,[],35,Yes,,Male,English,Chrome,Linux,760,360,8.00435,
1752,default,block1,hat,projective,0.98,5340,MC,10,MC,MC,[],35,Yes,,Male,English,Chrome,Linux,760,360,8.00435,
1752,default,block1,josie,projective,0.03,6250,think,11,think,C,[],35,Yes,,Male,English,Chrome,Linux,760,360,8.00435,
1752,default,block1,charley,projective,1,5903,know,12,know,C,[],35,Yes,,Male,English,Chrome,Linux,760,360,8.00435,
1752,default,block1,kids,projective,0.99,4614,MC,13,MC,MC,[],35,Yes,,Male,English,Chrome,Linux,760,360,8.00435,
1752,default,block1,mia,projective,0.99,4105,admit,14,admit,C,[],35,Yes,,Male,English,Chrome,Linux,760,360,8.00435,
1752,default,block1,garage,projective,0.98,16119,MC,15,MC,MC,[],35,Yes,,Male,English,Chrome,Linux,760,360,8.00435,
1752,default,block1,tony,projective,0.05,9841,be_right,16,be_right,C,[],35,Yes,,Male,English,Chrome,Linux,760,360,8.00435,
1752,default,block1,danny,projective,0.95,6577,acknowledge,17,acknowledge,C,[],35,Yes,,Male,English,Chrome,Linux,760,360,8.00435,
1752,default,block1,owen,projective,0.98,4355,reveal,18,reveal,C,[],35,Yes,,Male,English,Chrome,Linux,760,360,8.00435,
1752,default,block1,emily,projective,0.02,5109,prove,19,prove,C,[],35,Yes,,Male,English,Chrome,Linux,760,360,8.00435,
1752,default,block1,ballet,projective,0.96,4288,MC,20,MC,MC,[],35,Yes,,Male,English,Chrome,Linux,760,360,8.00435,
1752,default,block1,pizza,projective,0.99,3704,MC,21,MC,MC,[],35,Yes,,Male,English,Chrome,Linux,760,360,8.00435,
1752,default,block1,frank,projective,0,17687,pretend,22,pretend,C,[],35,Yes,,Male,English,Chrome,Linux,760,360,8.00435,
1752,default,block1,zoe,projective,0.02,9038,demonstrate,23,demonstrate,C,[],35,Yes,,Male,English,Chrome,Linux,760,360,8.00435,
1752,default,block1,muffins,projective,0.97,13188,MC,24,MC,MC,[],35,Yes,,Male,English,Chrome,Linux,760,360,8.00435,
1752,default,block1,olivia,projective,0.97,12702,discover,25,discover,C,[],35,Yes,,Male,English,Chrome,Linux,760,360,8.00435,
1752,default,block1,jayden,projective,0.02,8760,say,26,say,C,[],35,Yes,,Male,English,Chrome,Linux,760,360,8.00435,
1752,default,block1,mary,projective,0.04,3966,establish,27,establish,C,[],35,Yes,,Male,English,Chrome,Linux,760,360,8.00435,
1752,default,block1,sophia,projective,0.05,2574,announce,28,announce,C,[],35,Yes,,Male,English,Chrome,Linux,760,360,8.00435,
1752,default,block1,jon,projective,0.53,4747,see,29,see,C,[],35,Yes,,Male,English,Chrome,Linux,760,360,8.00435,
1752,default,block1,emma,projective,0,13660,suggest,30,suggest,C,[],35,Yes,,Male,English,Chrome,Linux,760,360,8.00435,
1752,default,block2,danny,ai,0.06,8498,acknowledge,32,acknowledge,C,[],35,Yes,,Male,English,Chrome,Linux,760,360,8.00435,
1752,default,block2,frank,ai,0.07,5549,pretend,33,pretend,C,[],35,Yes,,Male,English,Chrome,Linux,760,360,8.00435,
1752,default,block2,hat,ai,0.52,5448,MC,34,MC,MC,[],35,Yes,,Male,English,Chrome,Linux,760,360,8.00435,
1752,default,block2,emma,ai,0.5,7343,suggest,35,suggest,C,[],35,Yes,,Male,English,Chrome,Linux,760,360,8.00435,
1752,default,block2,tony,ai,0.54,8134,be_right,36,be_right,C,[],35,Yes,,Male,English,Chrome,Linux,760,360,8.00435,
1752,default,block2,emily,ai,0.96,7812,prove,37,prove,C,[],35,Yes,,Male,English,Chrome,Linux,760,360,8.00435,
1752,default,block2,josh,ai,0.21,5714,be_annoyed,38,be_annoyed,C,[],35,Yes,,Male,English,Chrome,Linux,760,360,8.00435,
1752,default,block2,muffins,ai,0.09,5504,MC,39,MC,MC,[],35,Yes,,Male,English,Chrome,Linux,760,360,8.00435,
1752,default,block2,julian,ai,0.8,7661,confess,40,confess,C,[],35,Yes,,Male,English,Chrome,Linux,760,360,8.00435,
1752,default,block2,sophia,ai,0.96,4072,announce,41,announce,C,[],35,Yes,,Male,English,Chrome,Linux,760,360,8.00435,
1752,default,block2,garage,ai,0.03,4580,MC,42,MC,MC,[],35,Yes,,Male,English,Chrome,Linux,760,360,8.00435,
1752,default,block2,jayden,ai,0.97,3462,say,43,say,C,[],35,Yes,,Male,English,Chrome,Linux,760,360,8.00435,
1752,default,block2,zoe,ai,0.29,5157,demonstrate,44,demonstrate,C,[],35,Yes,,Male,English,Chrome,Linux,760,360,8.00435,
1752,default,block2,isabella,ai,0.95,4334,confirm,45,confirm,C,[],35,Yes,,Male,English,Chrome,Linux,760,360,8.00435,
1752,default,block2,owen,ai,0.72,6568,reveal,46,reveal,C,[],35,Yes,,Male,English,Chrome,Linux,760,360,8.00435,
1752,default,block2,ballet,ai,0.04,6129,MC,47,MC,MC,[],35,Yes,,Male,English,Chrome,Linux,760,360,8.00435,
1752,default,block2,jon,ai,0.72,4276,see,48,see,C,[],35,Yes,,Male,English,Chrome,Linux,760,360,8.00435,
1752,default,block2,charley,ai,0.95,4317,know,49,know,C,[],35,Yes,,Male,English,Chrome,Linux,760,360,8.00435,
1752,default,block2,grace,ai,1,3269,hear,50,hear,C,[],35,Yes,,Male,English,Chrome,Linux,760,360,8.00435,
1752,default,block2,josie,ai,0.98,4880,think,51,think,C,[],35,Yes,,Male,English,Chrome,Linux,760,360,8.00435,
1752,default,block2,mia,ai,0.78,4713,admit,52,admit,C,[],35,Yes,,Male,English,Chrome,Linux,760,360,8.00435,
1752,default,block2,mary,ai,0.98,3683,establish,53,establish,C,[],35,Yes,,Male,English,Chrome,Linux,760,360,8.00435,
1752,default,block2,olivia,ai,1,2696,discover,54,discover,C,[],35,Yes,,Male,English,Chrome,Linux,760,360,8.00435,
1752,default,block2,pizza,ai,0.03,4713,MC,55,MC,MC,[],35,Yes,,Male,English,Chrome,Linux,760,360,8.00435,
1752,default,block2,kids,ai,0.06,28031,MC,56,MC,MC,[],35,Yes,,Male,English,Chrome,Linux,760,360,8.00435,
1752,default,block2,jackson,ai,0.94,3806,inform,57,inform,C,[],35,Yes,,Male,English,Chrome,Linux,760,360,8.00435,
1845,default,block1,zoe,projective,0.99,7447,acknowledge,5,acknowledge,C,[],28,Yes,,Female,English,Chrome,Windows,1080,1920,6.2919,
1845,default,block1,owen,projective,0.97,7800,inform,6,inform,C,[],28,Yes,,Female,English,Chrome,Windows,1080,1920,6.2919,
1845,default,block1,garage,projective,0.98,5488,MC,7,MC,MC,[],28,Yes,,Female,English,Chrome,Windows,1080,1920,6.2919,
1845,default,block1,isabella,projective,0.12,13433,think,8,think,C,[],28,Yes,,Female,English,Chrome,Windows,1080,1920,6.2919,
1845,default,block1,josie,projective,0.93,6159,reveal,9,reveal,C,[],28,Yes,,Female,English,Chrome,Windows,1080,1920,6.2919,
1845,default,block1,jon,projective,0.89,5361,demonstrate,10,demonstrate,C,[],28,Yes,,Female,English,Chrome,Windows,1080,1920,6.2919,
1845,default,block1,josh,projective,0.88,21320,confess,11,confess,C,[],28,Yes,,Female,English,Chrome,Windows,1080,1920,6.2919,
1845,default,block1,mia,projective,0.95,4736,admit,12,admit,C,[],28,Yes,,Female,English,Chrome,Windows,1080,1920,6.2919,
1845,default,block1,olivia,projective,0.97,3799,hear,13,hear,C,[],28,Yes,,Female,English,Chrome,Windows,1080,1920,6.2919,
1845,default,block1,pizza,projective,0.97,4632,MC,14,MC,MC,[],28,Yes,,Female,English,Chrome,Windows,1080,1920,6.2919,
1845,default,block1,julian,projective,0.95,4088,be_annoyed,15,be_annoyed,C,[],28,Yes,,Female,English,Chrome,Windows,1080,1920,6.2919,
1845,default,block1,frank,projective,0.05,5984,be_right,16,be_right,C,[],28,Yes,,Female,English,Chrome,Windows,1080,1920,6.2919,
1845,default,block1,emily,projective,0.19,8096,suggest,17,suggest,C,[],28,Yes,,Female,English,Chrome,Windows,1080,1920,6.2919,
1845,default,block1,mary,projective,0.2,4232,pretend,18,pretend,C,[],28,Yes,,Female,English,Chrome,Windows,1080,1920,6.2919,
1845,default,block1,charley,projective,0.22,4751,confirm,19,confirm,C,[],28,Yes,,Female,English,Chrome,Windows,1080,1920,6.2919,
1845,default,block1,tony,projective,0.94,4297,know,20,know,C,[],28,Yes,,Female,English,Chrome,Windows,1080,1920,6.2919,
1845,default,block1,grace,projective,0.84,4271,say,21,say,C,[],28,Yes,,Female,English,Chrome,Windows,1080,1920,6.2919,
1845,default,block1,jackson,projective,0.86,2887,establish,22,establish,C,[],28,Yes,,Female,English,Chrome,Windows,1080,1920,6.2919,
1845,default,block1,emma,projective,0.3,17071,prove,23,prove,C,[],28,Yes,,Female,English,Chrome,Windows,1080,1920,6.2919,
1845,default,block1,kids,projective,0.96,3577,MC,24,MC,MC,[],28,Yes,,Female,English,Chrome,Windows,1080,1920,6.2919,
1845,default,block1,danny,projective,0.7,4959,announce,25,announce,C,[],28,Yes,,Female,English,Chrome,Windows,1080,1920,6.2919,
1845,default,block1,sophia,projective,0.97,3296,discover,26,discover,C,[],28,Yes,,Female,English,Chrome,Windows,1080,1920,6.2919,
1845,default,block1,jayden,projective,0.88,3032,see,27,see,C,[],28,Yes,,Female,English,Chrome,Windows,1080,1920,6.2919,
1845,default,block1,ballet,projective,0.98,2951,MC,28,MC,MC,[],28,Yes,,Female,English,Chrome,Windows,1080,1920,6.2919,
1845,default,block1,hat,projective,0.96,3081,MC,29,MC,MC,[],28,Yes,,Female,English,Chrome,Windows,1080,1920,6.2919,
1845,default,block1,muffins,projective,0.93,5263,MC,30,MC,MC,[],28,Yes,,Female,English,Chrome,Windows,1080,1920,6.2919,
1845,default,block2,tony,ai,0.87,4343,know,32,know,C,[],28,Yes,,Female,English,Chrome,Windows,1080,1920,6.2919,
1845,default,block2,muffins,ai,0.8,12240,MC,33,MC,MC,[],28,Yes,,Female,English,Chrome,Windows,1080,1920,6.2919,
1845,default,block2,hat,ai,0.73,3368,MC,34,MC,MC,[],28,Yes,,Female,English,Chrome,Windows,1080,1920,6.2919,
1845,default,block2,grace,ai,0.83,2904,say,35,say,C,[],28,Yes,,Female,English,Chrome,Windows,1080,1920,6.2919,
1845,default,block2,julian,ai,0.14,6328,be_annoyed,36,be_annoyed,C,[],28,Yes,,Female,English,Chrome,Windows,1080,1920,6.2919,
1845,default,block2,zoe,ai,0.76,4600,acknowledge,37,acknowledge,C,[],28,Yes,,Female,English,Chrome,Windows,1080,1920,6.2919,
1845,default,block2,sophia,ai,0.77,5128,discover,38,discover,C,[],28,Yes,,Female,English,Chrome,Windows,1080,1920,6.2919,
1845,default,block2,jackson,ai,0.72,4249,establish,39,establish,C,[],28,Yes,,Female,English,Chrome,Windows,1080,1920,6.2919,
1845,default,block2,josie,ai,0.8,10175,reveal,40,reveal,C,[],28,Yes,,Female,English,Chrome,Windows,1080,1920,6.2919,
1845,default,block2,mia,ai,0.81,5176,admit,41,admit,C,[],28,Yes,,Female,English,Chrome,Windows,1080,1920,6.2919,
1845,default,block2,frank,ai,0.12,3672,be_right,42,be_right,C,[],28,Yes,,Female,English,Chrome,Windows,1080,1920,6.2919,
1845,default,block2,charley,ai,0.49,4600,confirm,43,confirm,C,[],28,Yes,,Female,English,Chrome,Windows,1080,1920,6.2919,
1845,default,block2,kids,ai,0.89,3480,MC,44,MC,MC,[],28,Yes,,Female,English,Chrome,Windows,1080,1920,6.2919,
1845,default,block2,emily,ai,0.73,3864,suggest,45,suggest,C,[],28,Yes,,Female,English,Chrome,Windows,1080,1920,6.2919,
1845,default,block2,ballet,ai,0.82,4841,MC,46,MC,MC,[],28,Yes,,Female,English,Chrome,Windows,1080,1920,6.2919,
1845,default,block2,mary,ai,0.5,11528,pretend,47,pretend,C,[],28,Yes,,Female,English,Chrome,Windows,1080,1920,6.2919,
1845,default,block2,danny,ai,0.8,5248,announce,48,announce,C,[],28,Yes,,Female,English,Chrome,Windows,1080,1920,6.2919,
1845,default,block2,garage,ai,0.94,5392,MC,49,MC,MC,[],28,Yes,,Female,English,Chrome,Windows,1080,1920,6.2919,
1845,default,block2,josh,ai,0.72,5192,confess,50,confess,C,[],28,Yes,,Female,English,Chrome,Windows,1080,1920,6.2919,
1845,default,block2,isabella,ai,0.2,5600,think,51,think,C,[],28,Yes,,Female,English,Chrome,Windows,1080,1920,6.2919,
1845,default,block2,pizza,ai,0.95,3752,MC,52,MC,MC,[],28,Yes,,Female,English,Chrome,Windows,1080,1920,6.2919,
1845,default,block2,olivia,ai,0.87,2936,hear,53,hear,C,[],28,Yes,,Female,English,Chrome,Windows,1080,1920,6.2919,
1845,default,block2,jon,ai,0.84,7912,demonstrate,54,demonstrate,C,[],28,Yes,,Female,English,Chrome,Windows,1080,1920,6.2919,
1845,default,block2,jayden,ai,0.82,4592,see,55,see,C,[],28,Yes,,Female,English,Chrome,Windows,1080,1920,6.2919,
1845,default,block2,emma,ai,0.49,5936,prove,56,prove,C,[],28,Yes,,Female,English,Chrome,Windows,1080,1920,6.2919,
1845,default,block2,owen,ai,0.72,5264,inform,57,inform,C,[],28,Yes,,Female,English,Chrome,Windows,1080,1920,6.2919,
1988,default,block1,mia,projective,0.32,20616,admit,5,admit,C,[],28,Yes,no comments,Female,English,Chrome,Windows,900,1440,19.2816,
1988,default,block1,ballet,projective,1,4728,MC,6,MC,MC,[],28,Yes,no comments,Female,English,Chrome,Windows,900,1440,19.2816,
1988,default,block1,emily,projective,0.8,34967,pretend,7,pretend,C,[],28,Yes,no comments,Female,English,Chrome,Windows,900,1440,19.2816,
1988,default,block1,isabella,projective,0.28,9216,confirm,8,confirm,C,[],28,Yes,no comments,Female,English,Chrome,Windows,900,1440,19.2816,
1988,default,block1,jon,projective,0.86,6943,see,9,see,C,[],28,Yes,no comments,Female,English,Chrome,Windows,900,1440,19.2816,
1988,default,block1,pizza,projective,1,3264,MC,10,MC,MC,[],28,Yes,no comments,Female,English,Chrome,Windows,900,1440,19.2816,
1988,default,block1,mary,projective,0.72,6576,confess,11,confess,C,[],28,Yes,no comments,Female,English,Chrome,Windows,900,1440,19.2816,
1988,default,block1,julian,projective,0.32,5712,reveal,12,reveal,C,[],28,Yes,no comments,Female,English,Chrome,Windows,900,1440,19.2816,
1988,default,block1,charley,projective,1,10344,inform,13,inform,C,[],28,Yes,no comments,Female,English,Chrome,Windows,900,1440,19.2816,
1988,default,block1,tony,projective,1,4424,announce,14,announce,C,[],28,Yes,no comments,Female,English,Chrome,Windows,900,1440,19.2816,
1988,default,block1,owen,projective,0.52,6432,say,15,say,C,[],28,Yes,no comments,Female,English,Chrome,Windows,900,1440,19.2816,
1988,default,block1,muffins,projective,1,3024,MC,16,MC,MC,[],28,Yes,no comments,Female,English,Chrome,Windows,900,1440,19.2816,
1988,default,block1,grace,projective,1,5856,hear,17,hear,C,[],28,Yes,no comments,Female,English,Chrome,Windows,900,1440,19.2816,
1988,default,block1,garage,projective,1,16392,MC,18,MC,MC,[],28,Yes,no comments,Female,English,Chrome,Windows,900,1440,19.2816,
1988,default,block1,jackson,projective,0.38,6920,think,19,think,C,[],28,Yes,no comments,Female,English,Chrome,Windows,900,1440,19.2816,
1988,default,block1,jayden,projective,1,8560,be_annoyed,20,be_annoyed,C,[],28,Yes,no comments,Female,English,Chrome,Windows,900,1440,19.2816,
1988,default,block1,josh,projective,0.39,36856,establish,21,establish,C,[],28,Yes,no comments,Female,English,Chrome,Windows,900,1440,19.2816,
1988,default,block1,sophia,projective,1,4360,discover,22,discover,C,[],28,Yes,no comments,Female,English,Chrome,Windows,900,1440,19.2816,
1988,default,block1,danny,projective,0.12,8616,suggest,23,suggest,C,[],28,Yes,no comments,Female,English,Chrome,Windows,900,1440,19.2816,
1988,default,block1,zoe,projective,0.87,7832,acknowledge,24,acknowledge,C,[],28,Yes,no comments,Female,English,Chrome,Windows,900,1440,19.2816,
1988,default,block1,hat,projective,1,3120,MC,25,MC,MC,[],28,Yes,no comments,Female,English,Chrome,Windows,900,1440,19.2816,
1988,default,block1,josie,projective,1,5135,know,26,know,C,[],28,Yes,no comments,Female,English,Chrome,Windows,900,1440,19.2816,
1988,default,block1,kids,projective,1,4248,MC,27,MC,MC,[],28,Yes,no comments,Female,English,Chrome,Windows,900,1440,19.2816,
1988,default,block1,olivia,projective,0,8912,be_right,28,be_right,C,[],28,Yes,no comments,Female,English,Chrome,Windows,900,1440,19.2816,
1988,default,block1,emma,projective,0,6168,prove,29,prove,C,[],28,Yes,no comments,Female,English,Chrome,Windows,900,1440,19.2816,
1988,default,block1,frank,projective,0.1,4696,demonstrate,30,demonstrate,C,[],28,Yes,no comments,Female,English,Chrome,Windows,900,1440,19.2816,
1988,default,block2,mary,ai,0.29,7471,confess,32,confess,C,[],28,Yes,no comments,Female,English,Chrome,Windows,900,1440,19.2816,
1988,default,block2,pizza,ai,0.64,5928,MC,33,MC,MC,[],28,Yes,no comments,Female,English,Chrome,Windows,900,1440,19.2816,
1988,default,block2,ballet,ai,0.78,6080,MC,34,MC,MC,[],28,Yes,no comments,Female,English,Chrome,Windows,900,1440,19.2816,
1988,default,block2,jon,ai,0.59,4760,see,35,see,C,[],28,Yes,no comments,Female,English,Chrome,Windows,900,1440,19.2816,
1988,default,block2,tony,ai,0.39,16428,announce,36,announce,C,[],28,Yes,no comments,Female,English,Chrome,Windows,900,1440,19.2816,
1988,default,block2,josh,ai,0.66,9256,establish,37,establish,C,[],28,Yes,no comments,Female,English,Chrome,Windows,900,1440,19.2816,
1988,default,block2,grace,ai,0.75,5392,hear,38,hear,C,[],28,Yes,no comments,Female,English,Chrome,Windows,900,1440,19.2816,
1988,default,block2,jackson,ai,0.78,6936,think,39,think,C,[],28,Yes,no comments,Female,English,Chrome,Windows,900,1440,19.2816,
1988,default,block2,garage,ai,0.97,5216,MC,40,MC,MC,[],28,Yes,no comments,Female,English,Chrome,Windows,900,1440,19.2816,
1988,default,block2,zoe,ai,0.76,3152,acknowledge,41,acknowledge,C,[],28,Yes,no comments,Female,English,Chrome,Windows,900,1440,19.2816,
1988,default,block2,frank,ai,0.37,4136,demonstrate,42,demonstrate,C,[],28,Yes,no comments,Female,English,Chrome,Windows,900,1440,19.2816,
1988,default,block2,isabella,ai,0.66,3880,confirm,43,confirm,C,[],28,Yes,no comments,Female,English,Chrome,Windows,900,1440,19.2816,
1988,default,block2,danny,ai,0.69,9224,suggest,44,suggest,C,[],28,Yes,no comments,Female,English,Chrome,Windows,900,1440,19.2816,
1988,default,block2,mia,ai,0.69,8216,admit,45,admit,C,[],28,Yes,no comments,Female,English,Chrome,Windows,900,1440,19.2816,
1988,default,block2,kids,ai,1,70668,MC,46,MC,MC,[],28,Yes,no comments,Female,English,Chrome,Windows,900,1440,19.2816,
1988,default,block2,julian,ai,0.85,4864,reveal,47,reveal,C,[],28,Yes,no comments,Female,English,Chrome,Windows,900,1440,19.2816,
1988,default,block2,jayden,ai,1,641705,be_annoyed,48,be_annoyed,C,[],28,Yes,no comments,Female,English,Chrome,Windows,900,1440,19.2816,
1988,default,block2,sophia,ai,1,3280,discover,49,discover,C,[],28,Yes,no comments,Female,English,Chrome,Windows,900,1440,19.2816,
1988,default,block2,emily,ai,0.64,4056,pretend,50,pretend,C,[],28,Yes,no comments,Female,English,Chrome,Windows,900,1440,19.2816,
1988,default,block2,charley,ai,1,5120,inform,51,inform,C,[],28,Yes,no comments,Female,English,Chrome,Windows,900,1440,19.2816,
1988,default,block2,emma,ai,0.26,4688,prove,52,prove,C,[],28,Yes,no comments,Female,English,Chrome,Windows,900,1440,19.2816,
1988,default,block2,hat,ai,1,2688,MC,53,MC,MC,[],28,Yes,no comments,Female,English,Chrome,Windows,900,1440,19.2816,
1988,default,block2,josie,ai,1,3679,know,54,know,C,[],28,Yes,no comments,Female,English,Chrome,Windows,900,1440,19.2816,
1988,default,block2,muffins,ai,1,2681,MC,55,MC,MC,[],28,Yes,no comments,Female,English,Chrome,Windows,900,1440,19.2816,
1988,default,block2,olivia,ai,0.13,7360,be_right,56,be_right,C,[],28,Yes,no comments,Female,English,Chrome,Windows,900,1440,19.2816,
1988,default,block2,owen,ai,0.29,8128,say,57,say,C,[],28,Yes,no comments,Female,English,Chrome,Windows,900,1440,19.2816,
1841,default,block1,garage,ai,0.67,9862,MC,5,MC,MC,[],28,Yes,,Female,English,Chrome,Mac,900,1440,4.498033333333334,
1841,default,block1,olivia,ai,0.08,5789,be_right,6,be_right,C,[],28,Yes,,Female,English,Chrome,Mac,900,1440,4.498033333333334,
1841,default,block1,kids,ai,0.72,5900,MC,7,MC,MC,[],28,Yes,,Female,English,Chrome,Mac,900,1440,4.498033333333334,
1841,default,block1,jon,ai,0.55,4393,reveal,8,reveal,C,[],28,Yes,,Female,English,Chrome,Mac,900,1440,4.498033333333334,
1841,default,block1,grace,ai,0.58,3688,say,9,say,C,[],28,Yes,,Female,English,Chrome,Mac,900,1440,4.498033333333334,
1841,default,block1,jackson,ai,0.2,3770,think,10,think,C,[],28,Yes,,Female,English,Chrome,Mac,900,1440,4.498033333333334,
1841,default,block1,danny,ai,0.41,5756,demonstrate,11,demonstrate,C,[],28,Yes,,Female,English,Chrome,Mac,900,1440,4.498033333333334,
1841,default,block1,owen,ai,0.27,8843,acknowledge,12,acknowledge,C,[],28,Yes,,Female,English,Chrome,Mac,900,1440,4.498033333333334,
1841,default,block1,jayden,ai,0.08,4082,be_annoyed,13,be_annoyed,C,[],28,Yes,,Female,English,Chrome,Mac,900,1440,4.498033333333334,
1841,default,block1,josh,ai,0.31,5107,prove,14,prove,C,[],28,Yes,,Female,English,Chrome,Mac,900,1440,4.498033333333334,
1841,default,block1,ballet,ai,0.93,3579,MC,15,MC,MC,[],28,Yes,,Female,English,Chrome,Mac,900,1440,4.498033333333334,
1841,default,block1,mary,ai,0.4,4481,establish,16,establish,C,[],28,Yes,,Female,English,Chrome,Mac,900,1440,4.498033333333334,
1841,default,block1,emma,ai,0.18,7988,admit,17,admit,C,[],28,Yes,,Female,English,Chrome,Mac,900,1440,4.498033333333334,
1841,default,block1,charley,ai,0.76,3914,suggest,18,suggest,C,[],28,Yes,,Female,English,Chrome,Mac,900,1440,4.498033333333334,
1841,default,block1,pizza,ai,0.99,4636,MC,19,MC,MC,[],28,Yes,,Female,English,Chrome,Mac,900,1440,4.498033333333334,
1841,default,block1,zoe,ai,0.43,5251,see,20,see,C,[],28,Yes,,Female,English,Chrome,Mac,900,1440,4.498033333333334,
1841,default,block1,hat,ai,0.5,3401,MC,21,MC,MC,[],28,Yes,,Female,English,Chrome,Mac,900,1440,4.498033333333334,
1841,default,block1,mia,ai,0.23,5743,announce,22,announce,C,[],28,Yes,,Female,English,Chrome,Mac,900,1440,4.498033333333334,
1841,default,block1,muffins,ai,0.91,3164,MC,23,MC,MC,[],28,Yes,,Female,English,Chrome,Mac,900,1440,4.498033333333334,
1841,default,block1,frank,ai,0.46,7202,confess,24,confess,C,[],28,Yes,,Female,English,Chrome,Mac,900,1440,4.498033333333334,
1841,default,block1,tony,ai,0.35,4214,discover,25,discover,C,[],28,Yes,,Female,English,Chrome,Mac,900,1440,4.498033333333334,
1841,default,block1,julian,ai,0.8,3520,hear,26,hear,C,[],28,Yes,,Female,English,Chrome,Mac,900,1440,4.498033333333334,
1841,default,block1,sophia,ai,0.17,3669,pretend,27,pretend,C,[],28,Yes,,Female,English,Chrome,Mac,900,1440,4.498033333333334,
1841,default,block1,isabella,ai,0.48,5649,inform,28,inform,C,[],28,Yes,,Female,English,Chrome,Mac,900,1440,4.498033333333334,
1841,default,block1,emily,ai,0.76,5335,know,29,know,C,[],28,Yes,,Female,English,Chrome,Mac,900,1440,4.498033333333334,
1841,default,block1,josie,ai,0.8,5351,confirm,30,confirm,C,[],28,Yes,,Female,English,Chrome,Mac,900,1440,4.498033333333334,
1841,default,block2,sophia,projective,0.15,8603,pretend,32,pretend,C,[],28,Yes,,Female,English,Chrome,Mac,900,1440,4.498033333333334,
1841,default,block2,muffins,projective,1,4439,MC,33,MC,MC,[],28,Yes,,Female,English,Chrome,Mac,900,1440,4.498033333333334,
1841,default,block2,mia,projective,0.13,3506,announce,34,announce,C,[],28,Yes,,Female,English,Chrome,Mac,900,1440,4.498033333333334,
1841,default,block2,charley,projective,0.04,2922,suggest,35,suggest,C,[],28,Yes,,Female,English,Chrome,Mac,900,1440,4.498033333333334,
1841,default,block2,isabella,projective,0.55,5413,inform,36,inform,C,[],28,Yes,,Female,English,Chrome,Mac,900,1440,4.498033333333334,
1841,default,block2,zoe,projective,0.68,3477,see,37,see,C,[],28,Yes,,Female,English,Chrome,Mac,900,1440,4.498033333333334,
1841,default,block2,tony,projective,0.79,3370,discover,38,discover,C,[],28,Yes,,Female,English,Chrome,Mac,900,1440,4.498033333333334,
1841,default,block2,jackson,projective,0.06,2880,think,39,think,C,[],28,Yes,,Female,English,Chrome,Mac,900,1440,4.498033333333334,
1841,default,block2,jayden,projective,0.9,7303,be_annoyed,40,be_annoyed,C,[],28,Yes,,Female,English,Chrome,Mac,900,1440,4.498033333333334,
1841,default,block2,ballet,projective,0.99,2678,MC,41,MC,MC,[],28,Yes,,Female,English,Chrome,Mac,900,1440,4.498033333333334,
1841,default,block2,olivia,projective,0.08,4876,be_right,42,be_right,C,[],28,Yes,,Female,English,Chrome,Mac,900,1440,4.498033333333334,
1841,default,block2,emma,projective,0.06,3424,admit,43,admit,C,[],28,Yes,,Female,English,Chrome,Mac,900,1440,4.498033333333334,
1841,default,block2,jon,projective,0.05,3178,reveal,44,reveal,C,[],28,Yes,,Female,English,Chrome,Mac,900,1440,4.498033333333334,
1841,default,block2,kids,projective,1,3381,MC,45,MC,MC,[],28,Yes,,Female,English,Chrome,Mac,900,1440,4.498033333333334,
1841,default,block2,mary,projective,0.07,2599,establish,46,establish,C,[],28,Yes,,Female,English,Chrome,Mac,900,1440,4.498033333333334,
1841,default,block2,josie,projective,0.38,6390,confirm,47,confirm,C,[],28,Yes,,Female,English,Chrome,Mac,900,1440,4.498033333333334,
1841,default,block2,julian,projective,0.64,2504,hear,48,hear,C,[],28,Yes,,Female,English,Chrome,Mac,900,1440,4.498033333333334,
1841,default,block2,frank,projective,0.08,2989,confess,49,confess,C,[],28,Yes,,Female,English,Chrome,Mac,900,1440,4.498033333333334,
1841,default,block2,hat,projective,0.98,2238,MC,50,MC,MC,[],28,Yes,,Female,English,Chrome,Mac,900,1440,4.498033333333334,
1841,default,block2,pizza,projective,1,2580,MC,51,MC,MC,[],28,Yes,,Female,English,Chrome,Mac,900,1440,4.498033333333334,
1841,default,block2,owen,projective,0.44,2183,acknowledge,52,acknowledge,C,[],28,Yes,,Female,English,Chrome,Mac,900,1440,4.498033333333334,
1841,default,block2,emily,projective,0.67,4383,know,53,know,C,[],28,Yes,,Female,English,Chrome,Mac,900,1440,4.498033333333334,
1841,default,block2,grace,projective,0.08,3145,say,54,say,C,[],28,Yes,,Female,English,Chrome,Mac,900,1440,4.498033333333334,
1841,default,block2,josh,projective,0.15,3833,prove,55,prove,C,[],28,Yes,,Female,English,Chrome,Mac,900,1440,4.498033333333334,
1841,default,block2,danny,projective,0.03,2880,demonstrate,56,demonstrate,C,[],28,Yes,,Female,English,Chrome,Mac,900,1440,4.498033333333334,
1841,default,block2,garage,projective,0.97,2179,MC,57,MC,MC,[],28,Yes,,Female,English,Chrome,Mac,900,1440,4.498033333333334,
1799,default,block1,jon,projective,0,5350,suggest,5,suggest,C,[],18,Yes,,Male,English,Firefox,Windows,768,1366,9.14335,
1799,default,block1,hat,projective,1,2703,MC,6,MC,MC,[],18,Yes,,Male,English,Firefox,Windows,768,1366,9.14335,
1799,default,block1,charley,projective,0.88,4912,inform,7,inform,C,[],18,Yes,,Male,English,Firefox,Windows,768,1366,9.14335,
1799,default,block1,emily,projective,0.05,3144,think,8,think,C,[],18,Yes,,Male,English,Firefox,Windows,768,1366,9.14335,
1799,default,block1,sophia,projective,0.02,4320,establish,9,establish,C,[],18,Yes,,Male,English,Firefox,Windows,768,1366,9.14335,
