workerid,proliferate.condition.x,block,content,question_type,response,rt,short_trigger,slide_number_in_experiment,trigger,trigger_class,error.x,proliferate.condition.y,age,american,comments,gender,language,error.y,trial
2606,default,block1,kids,ai,0.99,17164,MC,5,MC,MC,NA,default,28,Yes,NA,Female,English,NA,1
2606,default,block1,emma,ai,0.9299999999999999,13766,know,6,know,C,NA,default,28,Yes,NA,Female,English,NA,2
2606,default,block1,jayden,ai,0.97,10131,confess,7,confess,C,NA,default,28,Yes,NA,Female,English,NA,3
2606,default,block1,frank,ai,0.56,18172,pretend,8,pretend,C,NA,default,28,Yes,NA,Female,English,NA,4
2606,default,block1,mia,ai,0.99,8935,reveal,9,reveal,C,NA,default,28,Yes,NA,Female,English,NA,5
2606,default,block1,garage,ai,0.6599999999999999,17689,MC,10,MC,MC,NA,default,28,Yes,NA,Female,English,NA,6
2606,default,block1,tony,ai,0.99,7394,prove,11,prove,C,NA,default,28,Yes,NA,Female,English,NA,7
2606,default,block1,owen,ai,0.99,6888,confirm,12,confirm,C,NA,default,28,Yes,NA,Female,English,NA,8
2606,default,block1,grace,ai,0.98,7708,discover,13,discover,C,NA,default,28,Yes,NA,Female,English,NA,9
2606,default,block1,zoe,ai,0.98,6573,hear,14,hear,C,NA,default,28,Yes,NA,Female,English,NA,10
2606,default,block1,danny,ai,0.99,6551,acknowledge,15,acknowledge,C,NA,default,28,Yes,NA,Female,English,NA,11
2606,default,block1,mary,ai,0.99,6238,demonstrate,16,demonstrate,C,NA,default,28,Yes,NA,Female,English,NA,12
2606,default,block1,jackson,ai,0.98,9805,admit,17,admit,C,NA,default,28,Yes,NA,Female,English,NA,13
2606,default,block1,isabella,ai,0.97,9066,be_right,18,be_right,C,NA,default,28,Yes,NA,Female,English,NA,14
2606,default,block1,charley,ai,0.38,9398,think,19,think,C,NA,default,28,Yes,NA,Female,English,NA,15
2606,default,block1,hat,ai,0.55,9389,MC,20,MC,MC,NA,default,28,Yes,NA,Female,English,NA,16
2606,default,block1,pizza,ai,0.30000000000000004,11994,MC,21,MC,MC,NA,default,28,Yes,NA,Female,English,NA,17
2606,default,block1,josie,ai,0.98,6521,establish,22,establish,C,NA,default,28,Yes,NA,Female,English,NA,18
2606,default,block1,olivia,ai,0.97,8036,announce,23,announce,C,NA,default,28,Yes,NA,Female,English,NA,19
2606,default,block1,ballet,ai,0.43000000000000005,11038,MC,24,MC,MC,NA,default,28,Yes,NA,Female,English,NA,20
2606,default,block1,muffins,ai,0.27,10013,MC,25,MC,MC,NA,default,28,Yes,NA,Female,English,NA,21
2606,default,block1,josh,ai,0.97,27006,suggest,26,suggest,C,NA,default,28,Yes,NA,Female,English,NA,22
2606,default,block1,emily,ai,0.98,6141,say,27,say,C,NA,default,28,Yes,NA,Female,English,NA,23
2606,default,block1,julian,ai,0.98,12209,be_annoyed,28,be_annoyed,C,NA,default,28,Yes,NA,Female,English,NA,24
2606,default,block1,jon,ai,0.96,12103,inform,29,inform,C,NA,default,28,Yes,NA,Female,English,NA,25
2606,default,block1,sophia,ai,0.69,8720,see,30,see,C,NA,default,28,Yes,NA,Female,English,NA,26
2606,default,block2,frank,projective,0.7,12595,pretend,32,pretend,C,NA,default,28,Yes,NA,Female,English,NA,27
2606,default,block2,sophia,projective,0.95,6534,see,33,see,C,NA,default,28,Yes,NA,Female,English,NA,28
2606,default,block2,olivia,projective,0.93,9908,announce,34,announce,C,NA,default,28,Yes,NA,Female,English,NA,29
2606,default,block2,zoe,projective,0.85,6099,hear,35,hear,C,NA,default,28,Yes,NA,Female,English,NA,30
2606,default,block2,jackson,projective,0.9,5304,admit,36,admit,C,NA,default,28,Yes,NA,Female,English,NA,31
2606,default,block2,josie,projective,0.74,8602,establish,37,establish,C,NA,default,28,Yes,NA,Female,English,NA,32
2606,default,block2,muffins,projective,0.98,5762,MC,38,MC,MC,NA,default,28,Yes,NA,Female,English,NA,33
2606,default,block2,jon,projective,0.94,25684,inform,39,inform,C,NA,default,28,Yes,NA,Female,English,NA,34
2606,default,block2,ballet,projective,1,4419,MC,40,MC,MC,NA,default,28,Yes,NA,Female,English,NA,35
2606,default,block2,owen,projective,0.83,8145,confirm,41,confirm,C,NA,default,28,Yes,NA,Female,English,NA,36
2606,default,block2,jayden,projective,0.82,8869,confess,42,confess,C,NA,default,28,Yes,NA,Female,English,NA,37
2606,default,block2,danny,projective,0.98,4675,acknowledge,43,acknowledge,C,NA,default,28,Yes,NA,Female,English,NA,38
2606,default,block2,emily,projective,0.8,7041,say,44,say,C,NA,default,28,Yes,NA,Female,English,NA,39
2606,default,block2,grace,projective,0.9,5510,discover,45,discover,C,NA,default,28,Yes,NA,Female,English,NA,40
2606,default,block2,charley,projective,0.42,11075,think,46,think,C,NA,default,28,Yes,NA,Female,English,NA,41
2606,default,block2,pizza,projective,0.98,5217,MC,47,MC,MC,NA,default,28,Yes,NA,Female,English,NA,42
2606,default,block2,garage,projective,0.99,4965,MC,48,MC,MC,NA,default,28,Yes,NA,Female,English,NA,43
2606,default,block2,mary,projective,0.32,10476,demonstrate,49,demonstrate,C,NA,default,28,Yes,NA,Female,English,NA,44
2606,default,block2,isabella,projective,0.39,14647,be_right,50,be_right,C,NA,default,28,Yes,NA,Female,English,NA,45
2606,default,block2,julian,projective,0.99,12799,be_annoyed,51,be_annoyed,C,NA,default,28,Yes,NA,Female,English,NA,46
2606,default,block2,hat,projective,0.99,6391,MC,52,MC,MC,NA,default,28,Yes,NA,Female,English,NA,47
2606,default,block2,mia,projective,0.66,6239,reveal,53,reveal,C,NA,default,28,Yes,NA,Female,English,NA,48
2606,default,block2,kids,projective,0.99,17806,MC,54,MC,MC,NA,default,28,Yes,NA,Female,English,NA,49
2606,default,block2,tony,projective,0.26,14610,prove,55,prove,C,NA,default,28,Yes,NA,Female,English,NA,50
2606,default,block2,josh,projective,0.23,11811,suggest,56,suggest,C,NA,default,28,Yes,NA,Female,English,NA,51
2606,default,block2,emma,projective,0.97,4731,know,57,know,C,NA,default,28,Yes,NA,Female,English,NA,52
2616,default,block1,mia,projective,0.97,9991,see,5,see,C,NA,default,18,Yes,NA,Female,English,NA,1
2616,default,block1,jon,projective,0.97,9074,inform,6,inform,C,NA,default,18,Yes,NA,Female,English,NA,2
2616,default,block1,emily,projective,1,6259,admit,7,admit,C,NA,default,18,Yes,NA,Female,English,NA,3
2616,default,block1,sophia,projective,0.99,8167,announce,8,announce,C,NA,default,18,Yes,NA,Female,English,NA,4
2616,default,block1,owen,projective,1,11344,reveal,9,reveal,C,NA,default,18,Yes,NA,Female,English,NA,5
2616,default,block1,charley,projective,0.01,14329,be_right,10,be_right,C,NA,default,18,Yes,NA,Female,English,NA,6
2616,default,block1,muffins,projective,1,6158,MC,11,MC,MC,NA,default,18,Yes,NA,Female,English,NA,7
2616,default,block1,josie,projective,1,8381,be_annoyed,12,be_annoyed,C,NA,default,18,Yes,NA,Female,English,NA,8
2616,default,block1,hat,projective,0.99,5770,MC,13,MC,MC,NA,default,18,Yes,NA,Female,English,NA,9
2616,default,block1,jackson,projective,0.13,9522,confirm,14,confirm,C,NA,default,18,Yes,NA,Female,English,NA,10
2616,default,block1,garage,projective,1,6460,MC,15,MC,MC,NA,default,18,Yes,NA,Female,English,NA,11
2616,default,block1,isabella,projective,0,8815,prove,16,prove,C,NA,default,18,Yes,NA,Female,English,NA,12
2616,default,block1,jayden,projective,0.12,8887,demonstrate,17,demonstrate,C,NA,default,18,Yes,NA,Female,English,NA,13
2616,default,block1,emma,projective,0,4484,suggest,18,suggest,C,NA,default,18,Yes,NA,Female,English,NA,14
2616,default,block1,frank,projective,0,4943,confess,19,confess,C,NA,default,18,Yes,NA,Female,English,NA,15
2616,default,block1,tony,projective,0,4340,establish,20,establish,C,NA,default,18,Yes,NA,Female,English,NA,16
2616,default,block1,grace,projective,0.14,6499,pretend,21,pretend,C,NA,default,18,Yes,NA,Female,English,NA,17
2616,default,block1,josh,projective,1,5973,know,22,know,C,NA,default,18,Yes,NA,Female,English,NA,18
2616,default,block1,pizza,projective,1,4402,MC,23,MC,MC,NA,default,18,Yes,NA,Female,English,NA,19
2616,default,block1,danny,projective,1,5013,discover,24,discover,C,NA,default,18,Yes,NA,Female,English,NA,20
2616,default,block1,ballet,projective,1,4951,MC,25,MC,MC,NA,default,18,Yes,NA,Female,English,NA,21
2616,default,block1,mary,projective,1,4652,hear,26,hear,C,NA,default,18,Yes,NA,Female,English,NA,22
2616,default,block1,olivia,projective,0.67,7793,think,27,think,C,NA,default,18,Yes,NA,Female,English,NA,23
2616,default,block1,kids,projective,1,4201,MC,28,MC,MC,NA,default,18,Yes,NA,Female,English,NA,24
2616,default,block1,julian,projective,0,5069,say,29,say,C,NA,default,18,Yes,NA,Female,English,NA,25
2616,default,block1,zoe,projective,0.82,8931,acknowledge,30,acknowledge,C,NA,default,18,Yes,NA,Female,English,NA,26
2616,default,block2,muffins,ai,1,6607,MC,32,MC,MC,NA,default,18,Yes,NA,Female,English,NA,27
2616,default,block2,mia,ai,0.97,5876,see,33,see,C,NA,default,18,Yes,NA,Female,English,NA,28
2616,default,block2,kids,ai,1,6124,MC,34,MC,MC,NA,default,18,Yes,NA,Female,English,NA,29
2616,default,block2,tony,ai,1,4798,establish,35,establish,C,NA,default,18,Yes,NA,Female,English,NA,30
2616,default,block2,ballet,ai,1,9059,MC,36,MC,MC,NA,default,18,Yes,NA,Female,English,NA,31
2616,default,block2,charley,ai,1,7809,be_right,37,be_right,C,NA,default,18,Yes,NA,Female,English,NA,32
2616,default,block2,olivia,ai,0.6599999999999999,11956,think,38,think,C,NA,default,18,Yes,NA,Female,English,NA,33
2616,default,block2,grace,ai,0.65,7592,pretend,39,pretend,C,NA,default,18,Yes,NA,Female,English,NA,34
2616,default,block2,garage,ai,0.41000000000000003,9232,MC,40,MC,MC,NA,default,18,Yes,NA,Female,English,NA,35
2616,default,block2,josie,ai,0.5700000000000001,9601,be_annoyed,41,be_annoyed,C,NA,default,18,Yes,NA,Female,English,NA,36
2616,default,block2,jackson,ai,0.9,4756,confirm,42,confirm,C,NA,default,18,Yes,NA,Female,English,NA,37
2616,default,block2,mary,ai,1,6007,hear,43,hear,C,NA,default,18,Yes,NA,Female,English,NA,38
2616,default,block2,jon,ai,1,4857,inform,44,inform,C,NA,default,18,Yes,NA,Female,English,NA,39
2616,default,block2,sophia,ai,0.91,5672,announce,45,announce,C,NA,default,18,Yes,NA,Female,English,NA,40
2616,default,block2,emily,ai,1,4899,admit,46,admit,C,NA,default,18,Yes,NA,Female,English,NA,41
2616,default,block2,josh,ai,0.94,7441,know,47,know,C,NA,default,18,Yes,NA,Female,English,NA,42
2616,default,block2,danny,ai,1,5168,discover,48,discover,C,NA,default,18,Yes,NA,Female,English,NA,43
2616,default,block2,pizza,ai,1,5230,MC,49,MC,MC,NA,default,18,Yes,NA,Female,English,NA,44
2616,default,block2,isabella,ai,0.92,8291,prove,50,prove,C,NA,default,18,Yes,NA,Female,English,NA,45
2616,default,block2,emma,ai,0.98,5765,suggest,51,suggest,C,NA,default,18,Yes,NA,Female,English,NA,46
2616,default,block2,zoe,ai,0.9,5303,acknowledge,52,acknowledge,C,NA,default,18,Yes,NA,Female,English,NA,47
2616,default,block2,owen,ai,0.74,7349,reveal,53,reveal,C,NA,default,18,Yes,NA,Female,English,NA,48
2616,default,block2,hat,ai,0.35,5636,MC,54,MC,MC,NA,default,18,Yes,NA,Female,English,NA,49
2616,default,block2,julian,ai,0.99,5178,say,55,say,C,NA,default,18,Yes,NA,Female,English,NA,50
2616,default,block2,jayden,ai,0.69,4924,demonstrate,56,demonstrate,C,NA,default,18,Yes,NA,Female,English,NA,51
2616,default,block2,frank,ai,0.85,4300,confess,57,confess,C,NA,default,18,Yes,NA,Female,English,NA,52
2747,default,block1,danny,ai,0.98,18552,confess,5,confess,C,NA,default,29,Yes,NA,Female,English,NA,1
2747,default,block1,olivia,ai,0.98,15208,confirm,6,confirm,C,NA,default,29,Yes,NA,Female,English,NA,2
2747,default,block1,hat,ai,0.19999999999999996,13493,MC,7,MC,MC,NA,default,29,Yes,NA,Female,English,NA,3
2747,default,block1,isabella,ai,0.95,17849,establish,8,establish,C,NA,default,29,Yes,NA,Female,English,NA,4
2747,default,block1,garage,ai,0.18000000000000005,15375,MC,9,MC,MC,NA,default,29,Yes,NA,Female,English,NA,5
2747,default,block1,mia,ai,0.9299999999999999,9956,demonstrate,10,demonstrate,C,NA,default,29,Yes,NA,Female,English,NA,6
2747,default,block1,charley,ai,0.97,13018,reveal,11,reveal,C,NA,default,29,Yes,NA,Female,English,NA,7
2747,default,block1,owen,ai,0.84,18144,be_annoyed,12,be_annoyed,C,NA,default,29,Yes,NA,Female,English,NA,8
2747,default,block1,sophia,ai,0.86,5873,announce,13,announce,C,NA,default,29,Yes,NA,Female,English,NA,9
2747,default,block1,jon,ai,0.85,24745,be_right,14,be_right,C,NA,default,29,Yes,NA,Female,English,NA,10
2747,default,block1,frank,ai,0.85,12918,inform,15,inform,C,NA,default,29,Yes,NA,Female,English,NA,11
2747,default,block1,josh,ai,0.6,15407,hear,16,hear,C,NA,default,29,Yes,NA,Female,English,NA,12
2747,default,block1,julian,ai,0.8,17934,see,17,see,C,NA,default,29,Yes,NA,Female,English,NA,13
2747,default,block1,emma,ai,0.75,29805,admit,18,admit,C,NA,default,29,Yes,NA,Female,English,NA,14
2747,default,block1,mary,ai,0.47,10814,discover,19,discover,C,NA,default,29,Yes,NA,Female,English,NA,15
2747,default,block1,kids,ai,0.040000000000000036,15058,MC,20,MC,MC,NA,default,29,Yes,NA,Female,English,NA,16
2747,default,block1,muffins,ai,0.030000000000000027,10577,MC,21,MC,MC,NA,default,29,Yes,NA,Female,English,NA,17
2747,default,block1,jayden,ai,0.94,20344,prove,22,prove,C,NA,default,29,Yes,NA,Female,English,NA,18
2747,default,block1,zoe,ai,0.97,8423,suggest,23,suggest,C,NA,default,29,Yes,NA,Female,English,NA,19
2747,default,block1,emily,ai,0.88,5751,say,24,say,C,NA,default,29,Yes,NA,Female,English,NA,20
2747,default,block1,grace,ai,0.9,7484,pretend,25,pretend,C,NA,default,29,Yes,NA,Female,English,NA,21
2747,default,block1,pizza,ai,0.050000000000000044,7456,MC,26,MC,MC,NA,default,29,Yes,NA,Female,English,NA,22
2747,default,block1,josie,ai,0.72,12787,know,27,know,C,NA,default,29,Yes,NA,Female,English,NA,23
2747,default,block1,ballet,ai,0.020000000000000018,5282,MC,28,MC,MC,NA,default,29,Yes,NA,Female,English,NA,24
2747,default,block1,tony,ai,0.96,6191,think,29,think,C,NA,default,29,Yes,NA,Female,English,NA,25
2747,default,block1,jackson,ai,0.96,6249,acknowledge,30,acknowledge,C,NA,default,29,Yes,NA,Female,English,NA,26
2747,default,block2,mia,projective,0.15,9055,demonstrate,32,demonstrate,C,NA,default,29,Yes,NA,Female,English,NA,27
2747,default,block2,josie,projective,0.82,6487,know,33,know,C,NA,default,29,Yes,NA,Female,English,NA,28
2747,default,block2,emily,projective,0.22,5746,say,34,say,C,NA,default,29,Yes,NA,Female,English,NA,29
2747,default,block2,tony,projective,0.46,6686,think,35,think,C,NA,default,29,Yes,NA,Female,English,NA,30
2747,default,block2,muffins,projective,0.93,6791,MC,36,MC,MC,NA,default,29,Yes,NA,Female,English,NA,31
2747,default,block2,mary,projective,0.72,4573,discover,37,discover,C,NA,default,29,Yes,NA,Female,English,NA,32
2747,default,block2,sophia,projective,0.83,10727,announce,38,announce,C,NA,default,29,Yes,NA,Female,English,NA,33
2747,default,block2,isabella,projective,0.02,6152,establish,39,establish,C,NA,default,29,Yes,NA,Female,English,NA,34
2747,default,block2,jackson,projective,0.82,5856,acknowledge,40,acknowledge,C,NA,default,29,Yes,NA,Female,English,NA,35
2747,default,block2,danny,projective,0.59,6297,confess,41,confess,C,NA,default,29,Yes,NA,Female,English,NA,36
2747,default,block2,charley,projective,0.8,6757,reveal,42,reveal,C,NA,default,29,Yes,NA,Female,English,NA,37
2747,default,block2,jayden,projective,0.03,6852,prove,43,prove,C,NA,default,29,Yes,NA,Female,English,NA,38
2747,default,block2,josh,projective,0.83,8227,hear,44,hear,C,NA,default,29,Yes,NA,Female,English,NA,39
2747,default,block2,garage,projective,0.88,7456,MC,45,MC,MC,NA,default,29,Yes,NA,Female,English,NA,40
2747,default,block2,pizza,projective,0.86,4137,MC,46,MC,MC,NA,default,29,Yes,NA,Female,English,NA,41
2747,default,block2,jon,projective,0.08,9122,be_right,47,be_right,C,NA,default,29,Yes,NA,Female,English,NA,42
2747,default,block2,olivia,projective,0.08,5390,confirm,48,confirm,C,NA,default,29,Yes,NA,Female,English,NA,43
2747,default,block2,zoe,projective,0.13,9030,suggest,49,suggest,C,NA,default,29,Yes,NA,Female,English,NA,44
2747,default,block2,frank,projective,0.91,6121,inform,50,inform,C,NA,default,29,Yes,NA,Female,English,NA,45
2747,default,block2,owen,projective,0.85,8632,be_annoyed,51,be_annoyed,C,NA,default,29,Yes,NA,Female,English,NA,46
2747,default,block2,julian,projective,0.82,5632,see,52,see,C,NA,default,29,Yes,NA,Female,English,NA,47
2747,default,block2,kids,projective,0.88,13882,MC,53,MC,MC,NA,default,29,Yes,NA,Female,English,NA,48
2747,default,block2,hat,projective,0.88,5899,MC,54,MC,MC,NA,default,29,Yes,NA,Female,English,NA,49
2747,default,block2,ballet,projective,0.82,4794,MC,55,MC,MC,NA,default,29,Yes,NA,Female,English,NA,50
2747,default,block2,grace,projective,0.1,9563,pretend,56,pretend,C,NA,default,29,Yes,NA,Female,English,NA,51
2747,default,block2,emma,projective,0.69,13820,admit,57,admit,C,NA,default,29,Yes,NA,Female,English,NA,52
2749,default,block1,emma,ai,0.84,29275,suggest,5,suggest,C,NA,default,22,Yes,NA,Female,"english, spanish",NA,1
2749,default,block1,mia,ai,0.86,24047,acknowledge,6,acknowledge,C,NA,default,22,Yes,NA,Female,"english, spanish",NA,2
2749,default,block1,jon,ai,0.84,29369,discover,7,discover,C,NA,default,22,Yes,NA,Female,"english, spanish",NA,3
2749,default,block1,charley,ai,0.87,22206,pretend,8,pretend,C,NA,default,22,Yes,NA,Female,"english, spanish",NA,4
2749,default,block1,zoe,ai,0.88,7022,establish,9,establish,C,NA,default,22,Yes,NA,Female,"english, spanish",NA,5
2749,default,block1,sophia,ai,0.88,10857,think,10,think,C,NA,default,22,Yes,NA,Female,"english, spanish",NA,6
2749,default,block1,hat,ai,0.06999999999999995,20063,MC,11,MC,MC,NA,default,22,Yes,NA,Female,"english, spanish",NA,7
2749,default,block1,julian,ai,0.9,8217,see,12,see,C,NA,default,22,Yes,NA,Female,"english, spanish",NA,8
2749,default,block1,josh,ai,0.91,8017,know,13,know,C,NA,default,22,Yes,NA,Female,"english, spanish",NA,9
2749,default,block1,frank,ai,0.6,12653,be_right,14,be_right,C,NA,default,22,Yes,NA,Female,"english, spanish",NA,10
2749,default,block1,garage,ai,0.06000000000000005,8697,MC,15,MC,MC,NA,default,22,Yes,NA,Female,"english, spanish",NA,11
2749,default,block1,jackson,ai,0.87,5472,announce,16,announce,C,NA,default,22,Yes,NA,Female,"english, spanish",NA,12
2749,default,block1,ballet,ai,0.040000000000000036,6821,MC,17,MC,MC,NA,default,22,Yes,NA,Female,"english, spanish",NA,13
2749,default,block1,danny,ai,0.91,9749,confess,18,confess,C,NA,default,22,Yes,NA,Female,"english, spanish",NA,14
2749,default,block1,grace,ai,0.91,4536,demonstrate,19,demonstrate,C,NA,default,22,Yes,NA,Female,"english, spanish",NA,15
2749,default,block1,kids,ai,0.050000000000000044,12020,MC,20,MC,MC,NA,default,22,Yes,NA,Female,"english, spanish",NA,16
2749,default,block1,olivia,ai,0.91,7251,admit,21,admit,C,NA,default,22,Yes,NA,Female,"english, spanish",NA,17
2749,default,block1,mary,ai,0.87,7060,be_annoyed,22,be_annoyed,C,NA,default,22,Yes,NA,Female,"english, spanish",NA,18
2749,default,block1,emily,ai,0.75,14119,reveal,23,reveal,C,NA,default,22,Yes,NA,Female,"english, spanish",NA,19
2749,default,block1,isabella,ai,0.87,7263,hear,24,hear,C,NA,default,22,Yes,NA,Female,"english, spanish",NA,20
2749,default,block1,pizza,ai,0.050000000000000044,9026,MC,25,MC,MC,NA,default,22,Yes,NA,Female,"english, spanish",NA,21
2749,default,block1,tony,ai,0.86,7041,confirm,26,confirm,C,NA,default,22,Yes,NA,Female,"english, spanish",NA,22
2749,default,block1,josie,ai,0.8200000000000001,10682,say,27,say,C,NA,default,22,Yes,NA,Female,"english, spanish",NA,23
2749,default,block1,muffins,ai,0.06000000000000005,9239,MC,28,MC,MC,NA,default,22,Yes,NA,Female,"english, spanish",NA,24
2749,default,block1,owen,ai,0.92,6038,inform,29,inform,C,NA,default,22,Yes,NA,Female,"english, spanish",NA,25
2749,default,block1,jayden,ai,0.9,4347,prove,30,prove,C,NA,default,22,Yes,NA,Female,"english, spanish",NA,26
2749,default,block2,kids,projective,0.96,17805,MC,32,MC,MC,NA,default,22,Yes,NA,Female,"english, spanish",NA,27
2749,default,block2,grace,projective,0.11,15733,demonstrate,33,demonstrate,C,NA,default,22,Yes,NA,Female,"english, spanish",NA,28
2749,default,block2,hat,projective,0.98,5768,MC,34,MC,MC,NA,default,22,Yes,NA,Female,"english, spanish",NA,29
2749,default,block2,ballet,projective,0.97,3721,MC,35,MC,MC,NA,default,22,Yes,NA,Female,"english, spanish",NA,30
2749,default,block2,garage,projective,0.96,6621,MC,36,MC,MC,NA,default,22,Yes,NA,Female,"english, spanish",NA,31
2749,default,block2,zoe,projective,0.07,7596,establish,37,establish,C,NA,default,22,Yes,NA,Female,"english, spanish",NA,32
2749,default,block2,isabella,projective,0.07,11072,hear,38,hear,C,NA,default,22,Yes,NA,Female,"english, spanish",NA,33
2749,default,block2,jackson,projective,0.09,3399,announce,39,announce,C,NA,default,22,Yes,NA,Female,"english, spanish",NA,34
2749,default,block2,josie,projective,0.1,3958,say,40,say,C,NA,default,22,Yes,NA,Female,"english, spanish",NA,35
2749,default,block2,frank,projective,0.05,8314,be_right,41,be_right,C,NA,default,22,Yes,NA,Female,"english, spanish",NA,36
2749,default,block2,charley,projective,0.1,3260,pretend,42,pretend,C,NA,default,22,Yes,NA,Female,"english, spanish",NA,37
2749,default,block2,sophia,projective,0.08,5254,think,43,think,C,NA,default,22,Yes,NA,Female,"english, spanish",NA,38
2749,default,block2,josh,projective,0.66,16539,know,44,know,C,NA,default,22,Yes,NA,Female,"english, spanish",NA,39
2749,default,block2,muffins,projective,0.92,5409,MC,45,MC,MC,NA,default,22,Yes,NA,Female,"english, spanish",NA,40
2749,default,block2,emily,projective,0.34,14645,reveal,46,reveal,C,NA,default,22,Yes,NA,Female,"english, spanish",NA,41
2749,default,block2,olivia,projective,0.68,7281,admit,47,admit,C,NA,default,22,Yes,NA,Female,"english, spanish",NA,42
2749,default,block2,owen,projective,0.61,8069,inform,48,inform,C,NA,default,22,Yes,NA,Female,"english, spanish",NA,43
2749,default,block2,pizza,projective,0.98,5448,MC,49,MC,MC,NA,default,22,Yes,NA,Female,"english, spanish",NA,44
2749,default,block2,mary,projective,0.85,6544,be_annoyed,50,be_annoyed,C,NA,default,22,Yes,NA,Female,"english, spanish",NA,45
2749,default,block2,mia,projective,0.63,5226,acknowledge,51,acknowledge,C,NA,default,22,Yes,NA,Female,"english, spanish",NA,46
2749,default,block2,jayden,projective,0.17,10758,prove,52,prove,C,NA,default,22,Yes,NA,Female,"english, spanish",NA,47
2749,default,block2,emma,projective,0.14,6778,suggest,53,suggest,C,NA,default,22,Yes,NA,Female,"english, spanish",NA,48
2749,default,block2,julian,projective,0.74,10264,see,54,see,C,NA,default,22,Yes,NA,Female,"english, spanish",NA,49
2749,default,block2,jon,projective,0.87,6416,discover,55,discover,C,NA,default,22,Yes,NA,Female,"english, spanish",NA,50
2749,default,block2,tony,projective,0.12,6243,confirm,56,confirm,C,NA,default,22,Yes,NA,Female,"english, spanish",NA,51
2749,default,block2,danny,projective,0.77,7801,confess,57,confess,C,NA,default,22,Yes,NA,Female,"english, spanish",NA,52
2614,default,block1,frank,projective,0.77,9882,say,5,say,C,NA,default,36,Yes,None of these statements sounded right the way I have learned English in america,Female,"English,",NA,1
2614,default,block1,emma,projective,0.94,11047,hear,6,hear,C,NA,default,36,Yes,None of these statements sounded right the way I have learned English in america,Female,"English,",NA,2
2614,default,block1,tony,projective,0.27,18548,establish,7,establish,C,NA,default,36,Yes,None of these statements sounded right the way I have learned English in america,Female,"English,",NA,3
2614,default,block1,jayden,projective,0.96,9214,see,8,see,C,NA,default,36,Yes,None of these statements sounded right the way I have learned English in america,Female,"English,",NA,4
2614,default,block1,josie,projective,0.99,6073,be_annoyed,9,be_annoyed,C,NA,default,36,Yes,None of these statements sounded right the way I have learned English in america,Female,"English,",NA,5
2614,default,block1,julian,projective,0.84,16977,prove,10,prove,C,NA,default,36,Yes,None of these statements sounded right the way I have learned English in america,Female,"English,",NA,6
2614,default,block1,josh,projective,0.64,15054,think,11,think,C,NA,default,36,Yes,None of these statements sounded right the way I have learned English in america,Female,"English,",NA,7
2614,default,block1,emily,projective,0.16,81907,suggest,12,suggest,C,NA,default,36,Yes,None of these statements sounded right the way I have learned English in america,Female,"English,",NA,8
2614,default,block1,olivia,projective,0.8,12200,discover,13,discover,C,NA,default,36,Yes,None of these statements sounded right the way I have learned English in america,Female,"English,",NA,9
2614,default,block1,zoe,projective,0.13,8012,confirm,14,confirm,C,NA,default,36,Yes,None of these statements sounded right the way I have learned English in america,Female,"English,",NA,10
2614,default,block1,ballet,projective,0.98,7050,MC,15,MC,MC,NA,default,36,Yes,None of these statements sounded right the way I have learned English in america,Female,"English,",NA,11
2614,default,block1,mary,projective,0.4,9373,admit,16,admit,C,NA,default,36,Yes,None of these statements sounded right the way I have learned English in america,Female,"English,",NA,12
2614,default,block1,muffins,projective,0.99,15764,MC,17,MC,MC,NA,default,36,Yes,None of these statements sounded right the way I have learned English in america,Female,"English,",NA,13
2614,default,block1,owen,projective,0.03,16233,pretend,18,pretend,C,NA,default,36,Yes,None of these statements sounded right the way I have learned English in america,Female,"English,",NA,14
2614,default,block1,garage,projective,0.96,8119,MC,19,MC,MC,NA,default,36,Yes,None of these statements sounded right the way I have learned English in america,Female,"English,",NA,15
2614,default,block1,charley,projective,0.61,6959,reveal,20,reveal,C,NA,default,36,Yes,None of these statements sounded right the way I have learned English in america,Female,"English,",NA,16
2614,default,block1,jackson,projective,0.43,98502,inform,21,inform,C,NA,default,36,Yes,None of these statements sounded right the way I have learned English in america,Female,"English,",NA,17
2614,default,block1,pizza,projective,0.98,6979,MC,22,MC,MC,NA,default,36,Yes,None of these statements sounded right the way I have learned English in america,Female,"English,",NA,18
2614,default,block1,mia,projective,0.3,17357,acknowledge,23,acknowledge,C,NA,default,36,Yes,None of these statements sounded right the way I have learned English in america,Female,"English,",NA,19
2614,default,block1,jon,projective,0.45,9729,confess,24,confess,C,NA,default,36,Yes,None of these statements sounded right the way I have learned English in america,Female,"English,",NA,20
2614,default,block1,sophia,projective,0,11889,be_right,25,be_right,C,NA,default,36,Yes,None of these statements sounded right the way I have learned English in america,Female,"English,",NA,21
2614,default,block1,danny,projective,0.6,7698,announce,26,announce,C,NA,default,36,Yes,None of these statements sounded right the way I have learned English in america,Female,"English,",NA,22
2614,default,block1,hat,projective,0.98,10728,MC,27,MC,MC,NA,default,36,Yes,None of these statements sounded right the way I have learned English in america,Female,"English,",NA,23
2614,default,block1,grace,projective,0.17,7719,demonstrate,28,demonstrate,C,NA,default,36,Yes,None of these statements sounded right the way I have learned English in america,Female,"English,",NA,24
2614,default,block1,isabella,projective,0.81,9710,know,29,know,C,NA,default,36,Yes,None of these statements sounded right the way I have learned English in america,Female,"English,",NA,25
2614,default,block1,kids,projective,0.9,25633,MC,30,MC,MC,NA,default,36,Yes,None of these statements sounded right the way I have learned English in america,Female,"English,",NA,26
2614,default,block2,danny,ai,0.99,29609,announce,32,announce,C,NA,default,36,Yes,None of these statements sounded right the way I have learned English in america,Female,"English,",NA,27
2614,default,block2,emma,ai,0.99,28839,hear,33,hear,C,NA,default,36,Yes,None of these statements sounded right the way I have learned English in america,Female,"English,",NA,28
2614,default,block2,emily,ai,0.99,8140,suggest,34,suggest,C,NA,default,36,Yes,None of these statements sounded right the way I have learned English in america,Female,"English,",NA,29
2614,default,block2,garage,ai,0.45999999999999996,10906,MC,35,MC,MC,NA,default,36,Yes,None of these statements sounded right the way I have learned English in america,Female,"English,",NA,30
2614,default,block2,hat,ai,0.32999999999999996,11839,MC,36,MC,MC,NA,default,36,Yes,None of these statements sounded right the way I have learned English in america,Female,"English,",NA,31
2614,default,block2,mia,ai,0.99,7411,acknowledge,37,acknowledge,C,NA,default,36,Yes,None of these statements sounded right the way I have learned English in america,Female,"English,",NA,32
2614,default,block2,jon,ai,0.9299999999999999,11122,confess,38,confess,C,NA,default,36,Yes,None of these statements sounded right the way I have learned English in america,Female,"English,",NA,33
2614,default,block2,charley,ai,0.95,7352,reveal,39,reveal,C,NA,default,36,Yes,None of these statements sounded right the way I have learned English in america,Female,"English,",NA,34
2614,default,block2,kids,ai,0.73,10228,MC,40,MC,MC,NA,default,36,Yes,None of these statements sounded right the way I have learned English in america,Female,"English,",NA,35
2614,default,block2,jackson,ai,0.91,10888,inform,41,inform,C,NA,default,36,Yes,None of these statements sounded right the way I have learned English in america,Female,"English,",NA,36
2614,default,block2,ballet,ai,0.64,8285,MC,42,MC,MC,NA,default,36,Yes,None of these statements sounded right the way I have learned English in america,Female,"English,",NA,37
2614,default,block2,grace,ai,0.91,5937,demonstrate,43,demonstrate,C,NA,default,36,Yes,None of these statements sounded right the way I have learned English in america,Female,"English,",NA,38
2614,default,block2,olivia,ai,0.94,5292,discover,44,discover,C,NA,default,36,Yes,None of these statements sounded right the way I have learned English in america,Female,"English,",NA,39
2614,default,block2,muffins,ai,0.43000000000000005,7307,MC,45,MC,MC,NA,default,36,Yes,None of these statements sounded right the way I have learned English in america,Female,"English,",NA,40
2614,default,block2,julian,ai,0.92,42446,prove,46,prove,C,NA,default,36,Yes,None of these statements sounded right the way I have learned English in america,Female,"English,",NA,41
2614,default,block2,josh,ai,0.8200000000000001,11638,think,47,think,C,NA,default,36,Yes,None of these statements sounded right the way I have learned English in america,Female,"English,",NA,42
2614,default,block2,jayden,ai,0.89,15740,see,48,see,C,NA,default,36,Yes,None of these statements sounded right the way I have learned English in america,Female,"English,",NA,43
2614,default,block2,mary,ai,0.9299999999999999,5858,admit,49,admit,C,NA,default,36,Yes,None of these statements sounded right the way I have learned English in america,Female,"English,",NA,44
2614,default,block2,owen,ai,0.7,18173,pretend,50,pretend,C,NA,default,36,Yes,None of these statements sounded right the way I have learned English in america,Female,"English,",NA,45
2614,default,block2,zoe,ai,0.87,13611,confirm,51,confirm,C,NA,default,36,Yes,None of these statements sounded right the way I have learned English in america,Female,"English,",NA,46
2614,default,block2,josie,ai,0.71,11354,be_annoyed,52,be_annoyed,C,NA,default,36,Yes,None of these statements sounded right the way I have learned English in america,Female,"English,",NA,47
2614,default,block2,isabella,ai,0.86,32988,know,53,know,C,NA,default,36,Yes,None of these statements sounded right the way I have learned English in america,Female,"English,",NA,48
2614,default,block2,tony,ai,0.9,20226,establish,54,establish,C,NA,default,36,Yes,None of these statements sounded right the way I have learned English in america,Female,"English,",NA,49
2614,default,block2,pizza,ai,0.6699999999999999,9548,MC,55,MC,MC,NA,default,36,Yes,None of these statements sounded right the way I have learned English in america,Female,"English,",NA,50
2614,default,block2,sophia,ai,0.9,9715,be_right,56,be_right,C,NA,default,36,Yes,None of these statements sounded right the way I have learned English in america,Female,"English,",NA,51
2614,default,block2,frank,ai,0.86,10613,say,57,say,C,NA,default,36,Yes,None of these statements sounded right the way I have learned English in america,Female,"English,",NA,52
2670,default,block1,charley,projective,0,15294,think,5,think,C,NA,default,23,Yes,NA,Female,English,NA,1
2670,default,block1,ballet,projective,0.76,100438,MC,6,MC,MC,NA,default,23,Yes,NA,Female,English,NA,2
2670,default,block1,owen,projective,0.33,105645,establish,7,establish,C,NA,default,23,Yes,NA,Female,English,NA,3
2670,default,block1,olivia,projective,0.23,5899,suggest,8,suggest,C,NA,default,23,Yes,NA,Female,English,NA,4
2670,default,block1,mia,projective,0.08,10849,know,9,know,C,NA,default,23,Yes,NA,Female,English,NA,5
2670,default,block1,isabella,projective,0.29,11149,say,10,say,C,NA,default,23,Yes,NA,Female,English,NA,6
2670,default,block1,pizza,projective,0.9,31890,MC,11,MC,MC,NA,default,23,Yes,NA,Female,English,NA,7
2670,default,block1,emily,projective,0.16,10115,be_right,12,be_right,C,NA,default,23,Yes,NA,Female,English,NA,8
2670,default,block1,danny,projective,0.72,29875,inform,13,inform,C,NA,default,23,Yes,NA,Female,English,NA,9
2670,default,block1,zoe,projective,0.66,16954,reveal,14,reveal,C,NA,default,23,Yes,NA,Female,English,NA,10
2670,default,block1,sophia,projective,0.76,8315,acknowledge,15,acknowledge,C,NA,default,23,Yes,NA,Female,English,NA,11
2670,default,block1,jayden,projective,0.61,12160,confirm,16,confirm,C,NA,default,23,Yes,NA,Female,English,NA,12
2670,default,block1,josie,projective,0.64,14765,demonstrate,17,demonstrate,C,NA,default,23,Yes,NA,Female,English,NA,13
2670,default,block1,kids,projective,0.9,21939,MC,18,MC,MC,NA,default,23,Yes,NA,Female,English,NA,14
2670,default,block1,jon,projective,0.7,8121,discover,19,discover,C,NA,default,23,Yes,NA,Female,English,NA,15
2670,default,block1,grace,projective,0.69,15315,pretend,20,pretend,C,NA,default,23,Yes,NA,Female,English,NA,16
2670,default,block1,muffins,projective,0.94,7858,MC,21,MC,MC,NA,default,23,Yes,NA,Female,English,NA,17
2670,default,block1,garage,projective,0.96,6094,MC,22,MC,MC,NA,default,23,Yes,NA,Female,English,NA,18
2670,default,block1,frank,projective,0.77,7256,see,23,see,C,NA,default,23,Yes,NA,Female,English,NA,19
2670,default,block1,julian,projective,0.74,6700,admit,24,admit,C,NA,default,23,Yes,NA,Female,English,NA,20
2670,default,block1,hat,projective,0.99,6960,MC,25,MC,MC,NA,default,23,Yes,NA,Female,English,NA,21
2670,default,block1,mary,projective,0.63,6050,prove,26,prove,C,NA,default,23,Yes,NA,Female,English,NA,22
2670,default,block1,emma,projective,0.63,8732,confess,27,confess,C,NA,default,23,Yes,NA,Female,English,NA,23
2670,default,block1,jackson,projective,0.76,8323,announce,28,announce,C,NA,default,23,Yes,NA,Female,English,NA,24
2670,default,block1,tony,projective,0.82,5680,hear,29,hear,C,NA,default,23,Yes,NA,Female,English,NA,25
2670,default,block1,josh,projective,0.7,10639,be_annoyed,30,be_annoyed,C,NA,default,23,Yes,NA,Female,English,NA,26
2670,default,block2,danny,ai,0.38,29329,inform,32,inform,C,NA,default,23,Yes,NA,Female,English,NA,27
2670,default,block2,garage,ai,0.89,8162,MC,33,MC,MC,NA,default,23,Yes,NA,Female,English,NA,28
2670,default,block2,josie,ai,0.30000000000000004,8087,demonstrate,34,demonstrate,C,NA,default,23,Yes,NA,Female,English,NA,29
2670,default,block2,jayden,ai,0.29000000000000004,49308,confirm,35,confirm,C,NA,default,23,Yes,NA,Female,English,NA,30
2670,default,block2,frank,ai,0.74,10025,see,36,see,C,NA,default,23,Yes,NA,Female,English,NA,31
2670,default,block2,olivia,ai,0.72,11705,suggest,37,suggest,C,NA,default,23,Yes,NA,Female,English,NA,32
2670,default,block2,mary,ai,0.30000000000000004,6377,prove,38,prove,C,NA,default,23,Yes,NA,Female,English,NA,33
2670,default,block2,owen,ai,0.88,9635,establish,39,establish,C,NA,default,23,Yes,NA,Female,English,NA,34
2670,default,block2,muffins,ai,0.71,9382,MC,40,MC,MC,NA,default,23,Yes,NA,Female,English,NA,35
2670,default,block2,ballet,ai,0.43999999999999995,17195,MC,41,MC,MC,NA,default,23,Yes,NA,Female,English,NA,36
2670,default,block2,tony,ai,0.83,6040,hear,42,hear,C,NA,default,23,Yes,NA,Female,English,NA,37
2670,default,block2,pizza,ai,0.7,8161,MC,43,MC,MC,NA,default,23,Yes,NA,Female,English,NA,38
2670,default,block2,emma,ai,0.81,24057,confess,44,confess,C,NA,default,23,Yes,NA,Female,English,NA,39
2670,default,block2,hat,ai,0.7,4955,MC,45,MC,MC,NA,default,23,Yes,NA,Female,English,NA,40
2670,default,block2,jon,ai,0.8,5711,discover,46,discover,C,NA,default,23,Yes,NA,Female,English,NA,41
2670,default,block2,josh,ai,0.89,9433,be_annoyed,47,be_annoyed,C,NA,default,23,Yes,NA,Female,English,NA,42
2670,default,block2,jackson,ai,0.86,5741,announce,48,announce,C,NA,default,23,Yes,NA,Female,English,NA,43
2670,default,block2,grace,ai,0.87,6313,pretend,49,pretend,C,NA,default,23,Yes,NA,Female,English,NA,44
2670,default,block2,isabella,ai,0.92,7283,say,50,say,C,NA,default,23,Yes,NA,Female,English,NA,45
2670,default,block2,mia,ai,0.92,6230,know,51,know,C,NA,default,23,Yes,NA,Female,English,NA,46
2670,default,block2,kids,ai,0.77,6293,MC,52,MC,MC,NA,default,23,Yes,NA,Female,English,NA,47
2670,default,block2,sophia,ai,0.91,4096,acknowledge,53,acknowledge,C,NA,default,23,Yes,NA,Female,English,NA,48
2670,default,block2,zoe,ai,0.88,6782,reveal,54,reveal,C,NA,default,23,Yes,NA,Female,English,NA,49
2670,default,block2,emily,ai,0.88,10198,be_right,55,be_right,C,NA,default,23,Yes,NA,Female,English,NA,50
2670,default,block2,julian,ai,0.95,27719,admit,56,admit,C,NA,default,23,Yes,NA,Female,English,NA,51
2670,default,block2,charley,ai,0.87,12588,think,57,think,C,NA,default,23,Yes,NA,Female,English,NA,52
2686,default,block1,jackson,projective,0.18,29294,discover,5,discover,C,NA,default,36,Yes,"The wording was confusing, although I guess that was probably the point",Female,Englis,NA,1
2686,default,block1,kids,projective,0.98,9161,MC,6,MC,MC,NA,default,36,Yes,"The wording was confusing, although I guess that was probably the point",Female,Englis,NA,2
2686,default,block1,garage,projective,0.98,7522,MC,7,MC,MC,NA,default,36,Yes,"The wording was confusing, although I guess that was probably the point",Female,Englis,NA,3
2686,default,block1,charley,projective,0.15,13274,establish,8,establish,C,NA,default,36,Yes,"The wording was confusing, although I guess that was probably the point",Female,Englis,NA,4
2686,default,block1,emily,projective,0.23,8665,confirm,9,confirm,C,NA,default,36,Yes,"The wording was confusing, although I guess that was probably the point",Female,Englis,NA,5
2686,default,block1,owen,projective,0.26,11319,confess,10,confess,C,NA,default,36,Yes,"The wording was confusing, although I guess that was probably the point",Female,Englis,NA,6
2686,default,block1,frank,projective,0.18,7203,announce,11,announce,C,NA,default,36,Yes,"The wording was confusing, although I guess that was probably the point",Female,Englis,NA,7
2686,default,block1,olivia,projective,0.72,12950,see,12,see,C,NA,default,36,Yes,"The wording was confusing, although I guess that was probably the point",Female,Englis,NA,8
2686,default,block1,hat,projective,0.98,6195,MC,13,MC,MC,NA,default,36,Yes,"The wording was confusing, although I guess that was probably the point",Female,Englis,NA,9
2686,default,block1,grace,projective,0.2,6911,admit,14,admit,C,NA,default,36,Yes,"The wording was confusing, although I guess that was probably the point",Female,Englis,NA,10
2686,default,block1,tony,projective,0.69,5727,reveal,15,reveal,C,NA,default,36,Yes,"The wording was confusing, although I guess that was probably the point",Female,Englis,NA,11
2686,default,block1,josie,projective,0.63,8025,acknowledge,16,acknowledge,C,NA,default,36,Yes,"The wording was confusing, although I guess that was probably the point",Female,Englis,NA,12
2686,default,block1,pizza,projective,0.99,4881,MC,17,MC,MC,NA,default,36,Yes,"The wording was confusing, although I guess that was probably the point",Female,Englis,NA,13
2686,default,block1,ballet,projective,1,4269,MC,18,MC,MC,NA,default,36,Yes,"The wording was confusing, although I guess that was probably the point",Female,Englis,NA,14
2686,default,block1,jon,projective,0.78,7240,know,19,know,C,NA,default,36,Yes,"The wording was confusing, although I guess that was probably the point",Female,Englis,NA,15
2686,default,block1,mia,projective,0.32,5911,suggest,20,suggest,C,NA,default,36,Yes,"The wording was confusing, although I guess that was probably the point",Female,Englis,NA,16
2686,default,block1,isabella,projective,0.27,9915,demonstrate,21,demonstrate,C,NA,default,36,Yes,"The wording was confusing, although I guess that was probably the point",Female,Englis,NA,17
2686,default,block1,danny,projective,0.59,6923,prove,22,prove,C,NA,default,36,Yes,"The wording was confusing, although I guess that was probably the point",Female,Englis,NA,18
2686,default,block1,emma,projective,0.77,15476,inform,23,inform,C,NA,default,36,Yes,"The wording was confusing, although I guess that was probably the point",Female,Englis,NA,19
2686,default,block1,zoe,projective,0.27,7142,think,24,think,C,NA,default,36,Yes,"The wording was confusing, although I guess that was probably the point",Female,Englis,NA,20
2686,default,block1,jayden,projective,0.86,9916,be_annoyed,25,be_annoyed,C,NA,default,36,Yes,"The wording was confusing, although I guess that was probably the point",Female,Englis,NA,21
2686,default,block1,muffins,projective,0.99,6038,MC,26,MC,MC,NA,default,36,Yes,"The wording was confusing, although I guess that was probably the point",Female,Englis,NA,22
2686,default,block1,sophia,projective,0.84,4982,hear,27,hear,C,NA,default,36,Yes,"The wording was confusing, although I guess that was probably the point",Female,Englis,NA,23
2686,default,block1,julian,projective,0.03,15015,be_right,28,be_right,C,NA,default,36,Yes,"The wording was confusing, although I guess that was probably the point",Female,Englis,NA,24
2686,default,block1,josh,projective,0.12,7076,pretend,29,pretend,C,NA,default,36,Yes,"The wording was confusing, although I guess that was probably the point",Female,Englis,NA,25
2686,default,block1,mary,projective,0.64,5073,say,30,say,C,NA,default,36,Yes,"The wording was confusing, although I guess that was probably the point",Female,Englis,NA,26
2686,default,block2,ballet,ai,0.030000000000000027,17597,MC,32,MC,MC,NA,default,36,Yes,"The wording was confusing, although I guess that was probably the point",Female,Englis,NA,27
2686,default,block2,sophia,ai,0.97,5722,hear,33,hear,C,NA,default,36,Yes,"The wording was confusing, although I guess that was probably the point",Female,Englis,NA,28
2686,default,block2,zoe,ai,0.98,7685,think,34,think,C,NA,default,36,Yes,"The wording was confusing, although I guess that was probably the point",Female,Englis,NA,29
2686,default,block2,josh,ai,0.99,10522,pretend,35,pretend,C,NA,default,36,Yes,"The wording was confusing, although I guess that was probably the point",Female,Englis,NA,30
2686,default,block2,julian,ai,0.99,7075,be_right,36,be_right,C,NA,default,36,Yes,"The wording was confusing, although I guess that was probably the point",Female,Englis,NA,31
2686,default,block2,grace,ai,0.99,5762,admit,37,admit,C,NA,default,36,Yes,"The wording was confusing, although I guess that was probably the point",Female,Englis,NA,32
2686,default,block2,garage,ai,0.73,11945,MC,38,MC,MC,NA,default,36,Yes,"The wording was confusing, although I guess that was probably the point",Female,Englis,NA,33
2686,default,block2,emma,ai,0.98,7248,inform,39,inform,C,NA,default,36,Yes,"The wording was confusing, although I guess that was probably the point",Female,Englis,NA,34
2686,default,block2,muffins,ai,0.53,7515,MC,40,MC,MC,NA,default,36,Yes,"The wording was confusing, although I guess that was probably the point",Female,Englis,NA,35
2686,default,block2,danny,ai,0.99,5233,prove,41,prove,C,NA,default,36,Yes,"The wording was confusing, although I guess that was probably the point",Female,Englis,NA,36
2686,default,block2,mary,ai,0.99,5274,say,42,say,C,NA,default,36,Yes,"The wording was confusing, although I guess that was probably the point",Female,Englis,NA,37
2686,default,block2,josie,ai,0.99,5373,acknowledge,43,acknowledge,C,NA,default,36,Yes,"The wording was confusing, although I guess that was probably the point",Female,Englis,NA,38
2686,default,block2,tony,ai,0.99,6279,reveal,44,reveal,C,NA,default,36,Yes,"The wording was confusing, although I guess that was probably the point",Female,Englis,NA,39
2686,default,block2,isabella,ai,1,6351,demonstrate,45,demonstrate,C,NA,default,36,Yes,"The wording was confusing, although I guess that was probably the point",Female,Englis,NA,40
2686,default,block2,mia,ai,0.98,4770,suggest,46,suggest,C,NA,default,36,Yes,"The wording was confusing, although I guess that was probably the point",Female,Englis,NA,41
2686,default,block2,frank,ai,0.98,4088,announce,47,announce,C,NA,default,36,Yes,"The wording was confusing, although I guess that was probably the point",Female,Englis,NA,42
2686,default,block2,jon,ai,0.99,5197,know,48,know,C,NA,default,36,Yes,"The wording was confusing, although I guess that was probably the point",Female,Englis,NA,43
2686,default,block2,jayden,ai,1,6772,be_annoyed,49,be_annoyed,C,NA,default,36,Yes,"The wording was confusing, although I guess that was probably the point",Female,Englis,NA,44
2686,default,block2,hat,ai,0.38,9271,MC,50,MC,MC,NA,default,36,Yes,"The wording was confusing, although I guess that was probably the point",Female,Englis,NA,45
2686,default,block2,olivia,ai,0.98,5378,see,51,see,C,NA,default,36,Yes,"The wording was confusing, although I guess that was probably the point",Female,Englis,NA,46
2686,default,block2,kids,ai,0.63,8351,MC,52,MC,MC,NA,default,36,Yes,"The wording was confusing, although I guess that was probably the point",Female,Englis,NA,47
2686,default,block2,charley,ai,0.99,4465,establish,53,establish,C,NA,default,36,Yes,"The wording was confusing, although I guess that was probably the point",Female,Englis,NA,48
2686,default,block2,emily,ai,1,4088,confirm,54,confirm,C,NA,default,36,Yes,"The wording was confusing, although I guess that was probably the point",Female,Englis,NA,49
2686,default,block2,pizza,ai,0.45999999999999996,6956,MC,55,MC,MC,NA,default,36,Yes,"The wording was confusing, although I guess that was probably the point",Female,Englis,NA,50
2686,default,block2,owen,ai,1,4905,confess,56,confess,C,NA,default,36,Yes,"The wording was confusing, although I guess that was probably the point",Female,Englis,NA,51
2686,default,block2,jackson,ai,0.99,3921,discover,57,discover,C,NA,default,36,Yes,"The wording was confusing, although I guess that was probably the point",Female,Englis,NA,52
2710,default,block1,frank,ai,0.96,12226,announce,5,announce,C,NA,default,24,Yes,NA,Male,English,NA,1
2710,default,block1,ballet,ai,0.5700000000000001,11541,MC,6,MC,MC,NA,default,24,Yes,NA,Male,English,NA,2
2710,default,block1,hat,ai,0.5900000000000001,6933,MC,7,MC,MC,NA,default,24,Yes,NA,Male,English,NA,3
2710,default,block1,muffins,ai,0.49,8959,MC,8,MC,MC,NA,default,24,Yes,NA,Male,English,NA,4
2710,default,block1,josie,ai,0.99,7493,be_right,9,be_right,C,NA,default,24,Yes,NA,Male,English,NA,5
2710,default,block1,jayden,ai,0.98,8627,confess,10,confess,C,NA,default,24,Yes,NA,Male,English,NA,6
2710,default,block1,jon,ai,0.98,6659,demonstrate,11,demonstrate,C,NA,default,24,Yes,NA,Male,English,NA,7
2710,default,block1,isabella,ai,0.95,7197,see,12,see,C,NA,default,24,Yes,NA,Male,English,NA,8
2710,default,block1,garage,ai,0.65,9149,MC,13,MC,MC,NA,default,24,Yes,NA,Male,English,NA,9
2710,default,block1,mia,ai,0.97,8353,suggest,14,suggest,C,NA,default,24,Yes,NA,Male,English,NA,10
2710,default,block1,owen,ai,1,13177,pretend,15,pretend,C,NA,default,24,Yes,NA,Male,English,NA,11
2710,default,block1,sophia,ai,0.99,6448,hear,16,hear,C,NA,default,24,Yes,NA,Male,English,NA,12
2710,default,block1,josh,ai,0.65,6956,be_annoyed,17,be_annoyed,C,NA,default,24,Yes,NA,Male,English,NA,13
2710,default,block1,kids,ai,0.33999999999999997,8879,MC,18,MC,MC,NA,default,24,Yes,NA,Male,English,NA,14
2710,default,block1,olivia,ai,0.9299999999999999,4939,admit,19,admit,C,NA,default,24,Yes,NA,Male,English,NA,15
2710,default,block1,mary,ai,0.97,14083,know,20,know,C,NA,default,24,Yes,NA,Male,English,NA,16
2710,default,block1,emma,ai,0.77,5950,acknowledge,21,acknowledge,C,NA,default,24,Yes,NA,Male,English,NA,17
2710,default,block1,emily,ai,0.94,9046,reveal,22,reveal,C,NA,default,24,Yes,NA,Male,English,NA,18
2710,default,block1,jackson,ai,0.95,6121,confirm,23,confirm,C,NA,default,24,Yes,NA,Male,English,NA,19
2710,default,block1,julian,ai,0.87,6632,think,24,think,C,NA,default,24,Yes,NA,Male,English,NA,20
2710,default,block1,zoe,ai,0.98,4752,prove,25,prove,C,NA,default,24,Yes,NA,Male,English,NA,21
2710,default,block1,tony,ai,0.97,4658,say,26,say,C,NA,default,24,Yes,NA,Male,English,NA,22
2710,default,block1,charley,ai,0.98,5753,inform,27,inform,C,NA,default,24,Yes,NA,Male,English,NA,23
2710,default,block1,grace,ai,0.97,6505,establish,28,establish,C,NA,default,24,Yes,NA,Male,English,NA,24
2710,default,block1,pizza,ai,0.39,5519,MC,29,MC,MC,NA,default,24,Yes,NA,Male,English,NA,25
2710,default,block1,danny,ai,0.94,6726,discover,30,discover,C,NA,default,24,Yes,NA,Male,English,NA,26
2710,default,block2,frank,projective,0.94,8798,announce,32,announce,C,NA,default,24,Yes,NA,Male,English,NA,27
2710,default,block2,tony,projective,0.3,7873,say,33,say,C,NA,default,24,Yes,NA,Male,English,NA,28
2710,default,block2,julian,projective,0.47,6939,think,34,think,C,NA,default,24,Yes,NA,Male,English,NA,29
2710,default,block2,jon,projective,0.76,8931,demonstrate,35,demonstrate,C,NA,default,24,Yes,NA,Male,English,NA,30
2710,default,block2,mia,projective,0.54,8579,suggest,36,suggest,C,NA,default,24,Yes,NA,Male,English,NA,31
2710,default,block2,jayden,projective,0.79,7734,confess,37,confess,C,NA,default,24,Yes,NA,Male,English,NA,32
2710,default,block2,garage,projective,0.98,15133,MC,38,MC,MC,NA,default,24,Yes,NA,Male,English,NA,33
2710,default,block2,josie,projective,0.05,11522,be_right,39,be_right,C,NA,default,24,Yes,NA,Male,English,NA,34
2710,default,block2,charley,projective,0.76,7857,inform,40,inform,C,NA,default,24,Yes,NA,Male,English,NA,35
2710,default,block2,owen,projective,0.73,13442,pretend,41,pretend,C,NA,default,24,Yes,NA,Male,English,NA,36
2710,default,block2,emma,projective,0.69,6411,acknowledge,42,acknowledge,C,NA,default,24,Yes,NA,Male,English,NA,37
2710,default,block2,emily,projective,0.77,13511,reveal,43,reveal,C,NA,default,24,Yes,NA,Male,English,NA,38
2710,default,block2,muffins,projective,1,7253,MC,44,MC,MC,NA,default,24,Yes,NA,Male,English,NA,39
2710,default,block2,danny,projective,0.86,6034,discover,45,discover,C,NA,default,24,Yes,NA,Male,English,NA,40
2710,default,block2,sophia,projective,0.85,3958,hear,46,hear,C,NA,default,24,Yes,NA,Male,English,NA,41
2710,default,block2,zoe,projective,0.74,5754,prove,47,prove,C,NA,default,24,Yes,NA,Male,English,NA,42
2710,default,block2,jackson,projective,0.64,29597,confirm,48,confirm,C,NA,default,24,Yes,NA,Male,English,NA,43
2710,default,block2,pizza,projective,0.98,3852,MC,49,MC,MC,NA,default,24,Yes,NA,Male,English,NA,44
2710,default,block2,kids,projective,0.95,5095,MC,50,MC,MC,NA,default,24,Yes,NA,Male,English,NA,45
2710,default,block2,olivia,projective,0.71,5401,admit,51,admit,C,NA,default,24,Yes,NA,Male,English,NA,46
2710,default,block2,grace,projective,0.68,5674,establish,52,establish,C,NA,default,24,Yes,NA,Male,English,NA,47
2710,default,block2,hat,projective,0.96,5192,MC,53,MC,MC,NA,default,24,Yes,NA,Male,English,NA,48
2710,default,block2,isabella,projective,0.49,6994,see,54,see,C,NA,default,24,Yes,NA,Male,English,NA,49
2710,default,block2,josh,projective,0.84,6635,be_annoyed,55,be_annoyed,C,NA,default,24,Yes,NA,Male,English,NA,50
2710,default,block2,mary,projective,0.9,6980,know,56,know,C,NA,default,24,Yes,NA,Male,English,NA,51
2710,default,block2,ballet,projective,0.88,4453,MC,57,MC,MC,NA,default,24,Yes,NA,Male,English,NA,52
2721,default,block1,sophia,ai,0.97,15523,suggest,5,suggest,C,NA,default,24,Yes,NA,Female,English,NA,1
2721,default,block1,hat,ai,0.89,10996,MC,6,MC,MC,NA,default,24,Yes,NA,Female,English,NA,2
2721,default,block1,jackson,ai,0.9299999999999999,13768,say,7,say,C,NA,default,24,Yes,NA,Female,English,NA,3
2721,default,block1,olivia,ai,0.96,8648,discover,8,discover,C,NA,default,24,Yes,NA,Female,English,NA,4
2721,default,block1,jayden,ai,0.98,9034,confess,9,confess,C,NA,default,24,Yes,NA,Female,English,NA,5
2721,default,block1,tony,ai,0.96,12663,know,10,know,C,NA,default,24,Yes,NA,Female,English,NA,6
2721,default,block1,julian,ai,0.98,6583,confirm,11,confirm,C,NA,default,24,Yes,NA,Female,English,NA,7
2721,default,block1,jon,ai,0.98,9660,prove,12,prove,C,NA,default,24,Yes,NA,Female,English,NA,8
2721,default,block1,mia,ai,0.95,8317,be_right,13,be_right,C,NA,default,24,Yes,NA,Female,English,NA,9
2721,default,block1,grace,ai,0.97,7491,demonstrate,14,demonstrate,C,NA,default,24,Yes,NA,Female,English,NA,10
2721,default,block1,kids,ai,0.87,9659,MC,15,MC,MC,NA,default,24,Yes,NA,Female,English,NA,11
2721,default,block1,emily,ai,0.98,15247,admit,16,admit,C,NA,default,24,Yes,NA,Female,English,NA,12
2721,default,block1,pizza,ai,0.96,5302,MC,17,MC,MC,NA,default,24,Yes,NA,Female,English,NA,13
2721,default,block1,charley,ai,0.96,8645,reveal,18,reveal,C,NA,default,24,Yes,NA,Female,English,NA,14
2721,default,block1,danny,ai,0.9299999999999999,14027,inform,19,inform,C,NA,default,24,Yes,NA,Female,English,NA,15
2721,default,block1,owen,ai,0.97,11381,acknowledge,20,acknowledge,C,NA,default,24,Yes,NA,Female,English,NA,16
2721,default,block1,ballet,ai,0.62,11683,MC,21,MC,MC,NA,default,24,Yes,NA,Female,English,NA,17
2721,default,block1,isabella,ai,0.92,6871,think,22,think,C,NA,default,24,Yes,NA,Female,English,NA,18
2721,default,block1,frank,ai,1,8720,hear,23,hear,C,NA,default,24,Yes,NA,Female,English,NA,19
2721,default,block1,muffins,ai,0.30000000000000004,8512,MC,24,MC,MC,NA,default,24,Yes,NA,Female,English,NA,20
2721,default,block1,garage,ai,0.28,8722,MC,25,MC,MC,NA,default,24,Yes,NA,Female,English,NA,21
2721,default,block1,josh,ai,0.9299999999999999,6420,establish,26,establish,C,NA,default,24,Yes,NA,Female,English,NA,22
2721,default,block1,josie,ai,0.97,8127,pretend,27,pretend,C,NA,default,24,Yes,NA,Female,English,NA,23
2721,default,block1,mary,ai,0.99,5474,see,28,see,C,NA,default,24,Yes,NA,Female,English,NA,24
2721,default,block1,emma,ai,0.99,7041,be_annoyed,29,be_annoyed,C,NA,default,24,Yes,NA,Female,English,NA,25
2721,default,block1,zoe,ai,0.74,12530,announce,30,announce,C,NA,default,24,Yes,NA,Female,English,NA,26
2721,default,block2,danny,projective,0.88,37249,inform,32,inform,C,NA,default,24,Yes,NA,Female,English,NA,27
2721,default,block2,charley,projective,0.03,16190,reveal,33,reveal,C,NA,default,24,Yes,NA,Female,English,NA,28
2721,default,block2,mary,projective,0.9,10258,see,34,see,C,NA,default,24,Yes,NA,Female,English,NA,29
2721,default,block2,sophia,projective,0.94,9582,suggest,35,suggest,C,NA,default,24,Yes,NA,Female,English,NA,30
2721,default,block2,ballet,projective,0.95,7654,MC,36,MC,MC,NA,default,24,Yes,NA,Female,English,NA,31
2721,default,block2,jon,projective,0.87,22817,prove,37,prove,C,NA,default,24,Yes,NA,Female,English,NA,32
2721,default,block2,garage,projective,0.9,8311,MC,38,MC,MC,NA,default,24,Yes,NA,Female,English,NA,33
2721,default,block2,zoe,projective,0.93,7695,announce,39,announce,C,NA,default,24,Yes,NA,Female,English,NA,34
2721,default,block2,julian,projective,0.08,7264,confirm,40,confirm,C,NA,default,24,Yes,NA,Female,English,NA,35
2721,default,block2,jayden,projective,0.05,10990,confess,41,confess,C,NA,default,24,Yes,NA,Female,English,NA,36
2721,default,block2,isabella,projective,0.9,6108,think,42,think,C,NA,default,24,Yes,NA,Female,English,NA,37
2721,default,block2,muffins,projective,1,8568,MC,43,MC,MC,NA,default,24,Yes,NA,Female,English,NA,38
2721,default,block2,pizza,projective,0.89,4115,MC,44,MC,MC,NA,default,24,Yes,NA,Female,English,NA,39
2721,default,block2,hat,projective,0.71,8656,MC,45,MC,MC,NA,default,24,Yes,NA,Female,English,NA,40
2721,default,block2,grace,projective,0.11,5629,demonstrate,46,demonstrate,C,NA,default,24,Yes,NA,Female,English,NA,41
2721,default,block2,mia,projective,0.12,13767,be_right,47,be_right,C,NA,default,24,Yes,NA,Female,English,NA,42
2721,default,block2,emily,projective,0.17,27176,admit,48,admit,C,NA,default,24,Yes,NA,Female,English,NA,43
2721,default,block2,kids,projective,0.92,6139,MC,49,MC,MC,NA,default,24,Yes,NA,Female,English,NA,44
2721,default,block2,olivia,projective,0.67,7515,discover,50,discover,C,NA,default,24,Yes,NA,Female,English,NA,45
2721,default,block2,jackson,projective,0.1,5367,say,51,say,C,NA,default,24,Yes,NA,Female,English,NA,46
2721,default,block2,owen,projective,0.98,14980,acknowledge,52,acknowledge,C,NA,default,24,Yes,NA,Female,English,NA,47
2721,default,block2,tony,projective,0.94,6920,know,53,know,C,NA,default,24,Yes,NA,Female,English,NA,48
2721,default,block2,josie,projective,0.13,15317,pretend,54,pretend,C,NA,default,24,Yes,NA,Female,English,NA,49
2721,default,block2,frank,projective,0.97,5597,hear,55,hear,C,NA,default,24,Yes,NA,Female,English,NA,50
2721,default,block2,emma,projective,0.82,6500,be_annoyed,56,be_annoyed,C,NA,default,24,Yes,NA,Female,English,NA,51
2721,default,block2,josh,projective,0.1,8621,establish,57,establish,C,NA,default,24,Yes,NA,Female,English,NA,52
2631,default,block1,grace,projective,0,14702,demonstrate,5,demonstrate,C,NA,default,20,Yes,NA,Female,English,NA,1
2631,default,block1,julian,projective,0,29661,think,6,think,C,NA,default,20,Yes,NA,Female,English,NA,2
2631,default,block1,jon,projective,0.68,12411,acknowledge,7,acknowledge,C,NA,default,20,Yes,NA,Female,English,NA,3
2631,default,block1,charley,projective,0.74,16320,reveal,8,reveal,C,NA,default,20,Yes,NA,Female,English,NA,4
2631,default,block1,emma,projective,0,28944,confess,9,confess,C,NA,default,20,Yes,NA,Female,English,NA,5
2631,default,block1,olivia,projective,0.6,7408,announce,10,announce,C,NA,default,20,Yes,NA,Female,English,NA,6
2631,default,block1,ballet,projective,1,8076,MC,11,MC,MC,NA,default,20,Yes,NA,Female,English,NA,7
2631,default,block1,jackson,projective,0,9192,be_right,12,be_right,C,NA,default,20,Yes,NA,Female,English,NA,8
2631,default,block1,isabella,projective,0,7512,confirm,13,confirm,C,NA,default,20,Yes,NA,Female,English,NA,9
2631,default,block1,sophia,projective,0,7276,admit,14,admit,C,NA,default,20,Yes,NA,Female,English,NA,10
2631,default,block1,mary,projective,0.92,8660,inform,15,inform,C,NA,default,20,Yes,NA,Female,English,NA,11
2631,default,block1,frank,projective,1,13664,know,16,know,C,NA,default,20,Yes,NA,Female,English,NA,12
2631,default,block1,josie,projective,1,48856,discover,17,discover,C,NA,default,20,Yes,NA,Female,English,NA,13
2631,default,block1,owen,projective,0.15,12180,say,18,say,C,NA,default,20,Yes,NA,Female,English,NA,14
2631,default,block1,jayden,projective,1,6004,be_annoyed,19,be_annoyed,C,NA,default,20,Yes,NA,Female,English,NA,15
2631,default,block1,kids,projective,1,5985,MC,20,MC,MC,NA,default,20,Yes,NA,Female,English,NA,16
2631,default,block1,josh,projective,0,42767,suggest,21,suggest,C,NA,default,20,Yes,NA,Female,English,NA,17
2631,default,block1,zoe,projective,1,6572,establish,22,establish,C,NA,default,20,Yes,NA,Female,English,NA,18
2631,default,block1,emily,projective,1,6460,hear,23,hear,C,NA,default,20,Yes,NA,Female,English,NA,19
2631,default,block1,muffins,projective,1,3676,MC,24,MC,MC,NA,default,20,Yes,NA,Female,English,NA,20
2631,default,block1,tony,projective,1,5648,see,25,see,C,NA,default,20,Yes,NA,Female,English,NA,21
2631,default,block1,garage,projective,1,10076,MC,26,MC,MC,NA,default,20,Yes,NA,Female,English,NA,22
2631,default,block1,pizza,projective,1,4984,MC,27,MC,MC,NA,default,20,Yes,NA,Female,English,NA,23
2631,default,block1,mia,projective,0.18,16160,pretend,28,pretend,C,NA,default,20,Yes,NA,Female,English,NA,24
2631,default,block1,danny,projective,0,7024,prove,29,prove,C,NA,default,20,Yes,NA,Female,English,NA,25
2631,default,block1,hat,projective,1,7244,MC,30,MC,MC,NA,default,20,Yes,NA,Female,English,NA,26
2631,default,block2,emily,ai,0.92,10967,hear,32,hear,C,NA,default,20,Yes,NA,Female,English,NA,27
2631,default,block2,danny,ai,0.9,6117,prove,33,prove,C,NA,default,20,Yes,NA,Female,English,NA,28
2631,default,block2,owen,ai,0.9299999999999999,6907,say,34,say,C,NA,default,20,Yes,NA,Female,English,NA,29
2631,default,block2,emma,ai,0.94,6668,confess,35,confess,C,NA,default,20,Yes,NA,Female,English,NA,30
2631,default,block2,zoe,ai,0.9,2232,establish,36,establish,C,NA,default,20,Yes,NA,Female,English,NA,31
2631,default,block2,josh,ai,0.96,3348,suggest,37,suggest,C,NA,default,20,Yes,NA,Female,English,NA,32
2631,default,block2,grace,ai,0.91,1932,demonstrate,38,demonstrate,C,NA,default,20,Yes,NA,Female,English,NA,33
2631,default,block2,garage,ai,0.6699999999999999,7848,MC,39,MC,MC,NA,default,20,Yes,NA,Female,English,NA,34
2631,default,block2,sophia,ai,0.95,6064,admit,40,admit,C,NA,default,20,Yes,NA,Female,English,NA,35
2631,default,block2,ballet,ai,1,6040,MC,41,MC,MC,NA,default,20,Yes,NA,Female,English,NA,36
2631,default,block2,tony,ai,1,12612,see,42,see,C,NA,default,20,Yes,NA,Female,English,NA,37
2631,default,block2,jon,ai,1,2724,acknowledge,43,acknowledge,C,NA,default,20,Yes,NA,Female,English,NA,38
2631,default,block2,josie,ai,1,2452,discover,44,discover,C,NA,default,20,Yes,NA,Female,English,NA,39
2631,default,block2,jackson,ai,1,4011,be_right,45,be_right,C,NA,default,20,Yes,NA,Female,English,NA,40
2631,default,block2,pizza,ai,0.10999999999999999,7629,MC,46,MC,MC,NA,default,20,Yes,NA,Female,English,NA,41
2631,default,block2,hat,ai,0.88,4896,MC,47,MC,MC,NA,default,20,Yes,NA,Female,English,NA,42
2631,default,block2,muffins,ai,0.09999999999999998,4924,MC,48,MC,MC,NA,default,20,Yes,NA,Female,English,NA,43
2631,default,block2,frank,ai,0.89,3992,know,49,know,C,NA,default,20,Yes,NA,Female,English,NA,44
2631,default,block2,mary,ai,0.98,4084,inform,50,inform,C,NA,default,20,Yes,NA,Female,English,NA,45
2631,default,block2,olivia,ai,0.9299999999999999,2604,announce,51,announce,C,NA,default,20,Yes,NA,Female,English,NA,46
2631,default,block2,julian,ai,0.9299999999999999,2868,think,52,think,C,NA,default,20,Yes,NA,Female,English,NA,47
2631,default,block2,jayden,ai,0.86,2667,be_annoyed,53,be_annoyed,C,NA,default,20,Yes,NA,Female,English,NA,48
2631,default,block2,mia,ai,0.89,3312,pretend,54,pretend,C,NA,default,20,Yes,NA,Female,English,NA,49
2631,default,block2,charley,ai,0.9,3508,reveal,55,reveal,C,NA,default,20,Yes,NA,Female,English,NA,50
2631,default,block2,kids,ai,0.95,2287,MC,56,MC,MC,NA,default,20,Yes,NA,Female,English,NA,51
2631,default,block2,isabella,ai,0.86,3409,confirm,57,confirm,C,NA,default,20,Yes,NA,Female,English,NA,52
2662,default,block1,grace,projective,0.95,18911,confirm,5,confirm,C,NA,default,49,Yes,good study.,Male,English,NA,1
2662,default,block1,olivia,projective,0.04,2929,be_right,6,be_right,C,NA,default,49,Yes,good study.,Male,English,NA,2
2662,default,block1,kids,projective,0.98,3143,MC,7,MC,MC,NA,default,49,Yes,good study.,Male,English,NA,3
2662,default,block1,sophia,projective,0.05,1959,confess,8,confess,C,NA,default,49,Yes,good study.,Male,English,NA,4
2662,default,block1,mary,projective,0.97,2119,hear,9,hear,C,NA,default,49,Yes,good study.,Male,English,NA,5
2662,default,block1,charley,projective,0.95,2544,pretend,10,pretend,C,NA,default,49,Yes,good study.,Male,English,NA,6
2662,default,block1,danny,projective,0.99,2390,know,11,know,C,NA,default,49,Yes,good study.,Male,English,NA,7
2662,default,block1,garage,projective,0.93,1680,MC,12,MC,MC,NA,default,49,Yes,good study.,Male,English,NA,8
2662,default,block1,hat,projective,0.98,1551,MC,13,MC,MC,NA,default,49,Yes,good study.,Male,English,NA,9
2662,default,block1,muffins,projective,0.94,2233,MC,14,MC,MC,NA,default,49,Yes,good study.,Male,English,NA,10
2662,default,block1,ballet,projective,0.05,3335,MC,15,MC,MC,NA,default,49,Yes,good study.,Male,English,NA,11
2662,default,block1,owen,projective,0.96,1585,suggest,16,suggest,C,NA,default,49,Yes,good study.,Male,English,NA,12
2662,default,block1,josh,projective,0.02,1792,establish,17,establish,C,NA,default,49,Yes,good study.,Male,English,NA,13
2662,default,block1,jayden,projective,0.96,2487,say,18,say,C,NA,default,49,Yes,good study.,Male,English,NA,14
2662,default,block1,julian,projective,0,1912,demonstrate,19,demonstrate,C,NA,default,49,Yes,good study.,Male,English,NA,15
2662,default,block1,jon,projective,1,3048,acknowledge,20,acknowledge,C,NA,default,49,Yes,good study.,Male,English,NA,16
2662,default,block1,emily,projective,0.06,2433,announce,21,announce,C,NA,default,49,Yes,good study.,Male,English,NA,17
2662,default,block1,jackson,projective,0.97,2815,inform,22,inform,C,NA,default,49,Yes,good study.,Male,English,NA,18
2662,default,block1,pizza,projective,0.96,1872,MC,23,MC,MC,NA,default,49,Yes,good study.,Male,English,NA,19
2662,default,block1,isabella,projective,0.99,2072,think,24,think,C,NA,default,49,Yes,good study.,Male,English,NA,20
2662,default,block1,frank,projective,0.02,4800,admit,25,admit,C,NA,default,49,Yes,good study.,Male,English,NA,21
2662,default,block1,mia,projective,0.94,1744,prove,26,prove,C,NA,default,49,Yes,good study.,Male,English,NA,22
2662,default,block1,emma,projective,0.91,1416,be_annoyed,27,be_annoyed,C,NA,default,49,Yes,good study.,Male,English,NA,23
2662,default,block1,tony,projective,0.94,1241,see,28,see,C,NA,default,49,Yes,good study.,Male,English,NA,24
2662,default,block1,josie,projective,0.96,3647,discover,29,discover,C,NA,default,49,Yes,good study.,Male,English,NA,25
2662,default,block1,zoe,projective,0.99,2328,reveal,30,reveal,C,NA,default,49,Yes,good study.,Male,English,NA,26
2662,default,block2,zoe,ai,0.020000000000000018,2710,reveal,32,reveal,C,NA,default,49,Yes,good study.,Male,English,NA,27
2662,default,block2,ballet,ai,0,2487,MC,33,MC,MC,NA,default,49,Yes,good study.,Male,English,NA,28
2662,default,block2,emily,ai,1,3016,announce,34,announce,C,NA,default,49,Yes,good study.,Male,English,NA,29
2662,default,block2,owen,ai,1,2081,suggest,35,suggest,C,NA,default,49,Yes,good study.,Male,English,NA,30
2662,default,block2,garage,ai,0.97,2263,MC,36,MC,MC,NA,default,49,Yes,good study.,Male,English,NA,31
2662,default,block2,frank,ai,0.020000000000000018,2216,admit,37,admit,C,NA,default,49,Yes,good study.,Male,English,NA,32
2662,default,block2,grace,ai,0.030000000000000027,2087,confirm,38,confirm,C,NA,default,49,Yes,good study.,Male,English,NA,33
2662,default,block2,jackson,ai,0.030000000000000027,1672,inform,39,inform,C,NA,default,49,Yes,good study.,Male,English,NA,34
2662,default,block2,hat,ai,0,1752,MC,40,MC,MC,NA,default,49,Yes,good study.,Male,English,NA,35
2662,default,block2,jon,ai,0.010000000000000009,2297,acknowledge,41,acknowledge,C,NA,default,49,Yes,good study.,Male,English,NA,36
2662,default,block2,emma,ai,0.020000000000000018,2424,be_annoyed,42,be_annoyed,C,NA,default,49,Yes,good study.,Male,English,NA,37
2662,default,block2,julian,ai,1,2119,demonstrate,43,demonstrate,C,NA,default,49,Yes,good study.,Male,English,NA,38
2662,default,block2,mia,ai,0,7982,prove,44,prove,C,NA,default,49,Yes,good study.,Male,English,NA,39
2662,default,block2,charley,ai,0,2952,pretend,45,pretend,C,NA,default,49,Yes,good study.,Male,English,NA,40
2662,default,block2,sophia,ai,0.030000000000000027,1823,confess,46,confess,C,NA,default,49,Yes,good study.,Male,English,NA,41
2662,default,block2,danny,ai,0.98,2816,know,47,know,C,NA,default,49,Yes,good study.,Male,English,NA,42
2662,default,block2,josh,ai,0,2144,establish,48,establish,C,NA,default,49,Yes,good study.,Male,English,NA,43
2662,default,block2,mary,ai,0,4608,hear,49,hear,C,NA,default,49,Yes,good study.,Male,English,NA,44
2662,default,block2,kids,ai,0,2520,MC,50,MC,MC,NA,default,49,Yes,good study.,Male,English,NA,45
2662,default,block2,pizza,ai,0,2000,MC,51,MC,MC,NA,default,49,Yes,good study.,Male,English,NA,46
2662,default,block2,isabella,ai,0.010000000000000009,3408,think,52,think,C,NA,default,49,Yes,good study.,Male,English,NA,47
2662,default,block2,olivia,ai,0.020000000000000018,2399,be_right,53,be_right,C,NA,default,49,Yes,good study.,Male,English,NA,48
2662,default,block2,josie,ai,0,5857,discover,54,discover,C,NA,default,49,Yes,good study.,Male,English,NA,49
2662,default,block2,jayden,ai,1,2552,say,55,say,C,NA,default,49,Yes,good study.,Male,English,NA,50
2662,default,block2,tony,ai,0,2208,see,56,see,C,NA,default,49,Yes,good study.,Male,English,NA,51
2662,default,block2,muffins,ai,0,3329,MC,57,MC,MC,NA,default,49,Yes,good study.,Male,English,NA,52
2724,default,block1,charley,projective,0.28,30794,pretend,5,pretend,C,NA,default,24,Yes,"I felt that the questions that were meant to be 'attention checks' weren't as clear as you stated they would be in the beginning. There weren't many that I felt I was 100% correct on, mostly because it felt like the majority of responses didn't make sense.",Female,Engligh,NA,1
2724,default,block1,josie,projective,0.03,17768,prove,6,prove,C,NA,default,24,Yes,"I felt that the questions that were meant to be 'attention checks' weren't as clear as you stated they would be in the beginning. There weren't many that I felt I was 100% correct on, mostly because it felt like the majority of responses didn't make sense.",Female,Engligh,NA,2
2724,default,block1,owen,projective,0.94,12283,see,7,see,C,NA,default,24,Yes,"I felt that the questions that were meant to be 'attention checks' weren't as clear as you stated they would be in the beginning. There weren't many that I felt I was 100% correct on, mostly because it felt like the majority of responses didn't make sense.",Female,Engligh,NA,3
2724,default,block1,mia,projective,0.73,8516,say,8,say,C,NA,default,24,Yes,"I felt that the questions that were meant to be 'attention checks' weren't as clear as you stated they would be in the beginning. There weren't many that I felt I was 100% correct on, mostly because it felt like the majority of responses didn't make sense.",Female,Engligh,NA,4
2724,default,block1,muffins,projective,0.92,8891,MC,9,MC,MC,NA,default,24,Yes,"I felt that the questions that were meant to be 'attention checks' weren't as clear as you stated they would be in the beginning. There weren't many that I felt I was 100% correct on, mostly because it felt like the majority of responses didn't make sense.",Female,Engligh,NA,5
2724,default,block1,josh,projective,0.84,7236,admit,10,admit,C,NA,default,24,Yes,"I felt that the questions that were meant to be 'attention checks' weren't as clear as you stated they would be in the beginning. There weren't many that I felt I was 100% correct on, mostly because it felt like the majority of responses didn't make sense.",Female,Engligh,NA,6
2724,default,block1,grace,projective,0.92,11627,inform,11,inform,C,NA,default,24,Yes,"I felt that the questions that were meant to be 'attention checks' weren't as clear as you stated they would be in the beginning. There weren't many that I felt I was 100% correct on, mostly because it felt like the majority of responses didn't make sense.",Female,Engligh,NA,7
2724,default,block1,pizza,projective,0.95,7180,MC,12,MC,MC,NA,default,24,Yes,"I felt that the questions that were meant to be 'attention checks' weren't as clear as you stated they would be in the beginning. There weren't many that I felt I was 100% correct on, mostly because it felt like the majority of responses didn't make sense.",Female,Engligh,NA,8
2724,default,block1,danny,projective,0.65,7577,establish,13,establish,C,NA,default,24,Yes,"I felt that the questions that were meant to be 'attention checks' weren't as clear as you stated they would be in the beginning. There weren't many that I felt I was 100% correct on, mostly because it felt like the majority of responses didn't make sense.",Female,Engligh,NA,9
2724,default,block1,jayden,projective,0.32,9776,confess,14,confess,C,NA,default,24,Yes,"I felt that the questions that were meant to be 'attention checks' weren't as clear as you stated they would be in the beginning. There weren't many that I felt I was 100% correct on, mostly because it felt like the majority of responses didn't make sense.",Female,Engligh,NA,10
2724,default,block1,frank,projective,0.2,9561,think,15,think,C,NA,default,24,Yes,"I felt that the questions that were meant to be 'attention checks' weren't as clear as you stated they would be in the beginning. There weren't many that I felt I was 100% correct on, mostly because it felt like the majority of responses didn't make sense.",Female,Engligh,NA,11
2724,default,block1,emma,projective,0.31,6744,demonstrate,16,demonstrate,C,NA,default,24,Yes,"I felt that the questions that were meant to be 'attention checks' weren't as clear as you stated they would be in the beginning. There weren't many that I felt I was 100% correct on, mostly because it felt like the majority of responses didn't make sense.",Female,Engligh,NA,12
2724,default,block1,hat,projective,0.91,6792,MC,17,MC,MC,NA,default,24,Yes,"I felt that the questions that were meant to be 'attention checks' weren't as clear as you stated they would be in the beginning. There weren't many that I felt I was 100% correct on, mostly because it felt like the majority of responses didn't make sense.",Female,Engligh,NA,13
2724,default,block1,jon,projective,0.77,8203,announce,18,announce,C,NA,default,24,Yes,"I felt that the questions that were meant to be 'attention checks' weren't as clear as you stated they would be in the beginning. There weren't many that I felt I was 100% correct on, mostly because it felt like the majority of responses didn't make sense.",Female,Engligh,NA,14
2724,default,block1,ballet,projective,0.94,5902,MC,19,MC,MC,NA,default,24,Yes,"I felt that the questions that were meant to be 'attention checks' weren't as clear as you stated they would be in the beginning. There weren't many that I felt I was 100% correct on, mostly because it felt like the majority of responses didn't make sense.",Female,Engligh,NA,15
2724,default,block1,kids,projective,0.96,8179,MC,20,MC,MC,NA,default,24,Yes,"I felt that the questions that were meant to be 'attention checks' weren't as clear as you stated they would be in the beginning. There weren't many that I felt I was 100% correct on, mostly because it felt like the majority of responses didn't make sense.",Female,Engligh,NA,16
2724,default,block1,zoe,projective,0.11,10449,be_right,21,be_right,C,NA,default,24,Yes,"I felt that the questions that were meant to be 'attention checks' weren't as clear as you stated they would be in the beginning. There weren't many that I felt I was 100% correct on, mostly because it felt like the majority of responses didn't make sense.",Female,Engligh,NA,17
2724,default,block1,isabella,projective,0.14,5840,confirm,22,confirm,C,NA,default,24,Yes,"I felt that the questions that were meant to be 'attention checks' weren't as clear as you stated they would be in the beginning. There weren't many that I felt I was 100% correct on, mostly because it felt like the majority of responses didn't make sense.",Female,Engligh,NA,18
2724,default,block1,olivia,projective,0.72,6909,be_annoyed,23,be_annoyed,C,NA,default,24,Yes,"I felt that the questions that were meant to be 'attention checks' weren't as clear as you stated they would be in the beginning. There weren't many that I felt I was 100% correct on, mostly because it felt like the majority of responses didn't make sense.",Female,Engligh,NA,19
2724,default,block1,emily,projective,0.86,4846,know,24,know,C,NA,default,24,Yes,"I felt that the questions that were meant to be 'attention checks' weren't as clear as you stated they would be in the beginning. There weren't many that I felt I was 100% correct on, mostly because it felt like the majority of responses didn't make sense.",Female,Engligh,NA,20
2724,default,block1,jackson,projective,0.78,4788,discover,25,discover,C,NA,default,24,Yes,"I felt that the questions that were meant to be 'attention checks' weren't as clear as you stated they would be in the beginning. There weren't many that I felt I was 100% correct on, mostly because it felt like the majority of responses didn't make sense.",Female,Engligh,NA,21
2724,default,block1,sophia,projective,0.22,4347,suggest,26,suggest,C,NA,default,24,Yes,"I felt that the questions that were meant to be 'attention checks' weren't as clear as you stated they would be in the beginning. There weren't many that I felt I was 100% correct on, mostly because it felt like the majority of responses didn't make sense.",Female,Engligh,NA,22
2724,default,block1,julian,projective,0.73,6005,acknowledge,27,acknowledge,C,NA,default,24,Yes,"I felt that the questions that were meant to be 'attention checks' weren't as clear as you stated they would be in the beginning. There weren't many that I felt I was 100% correct on, mostly because it felt like the majority of responses didn't make sense.",Female,Engligh,NA,23
2724,default,block1,tony,projective,0.77,6626,hear,28,hear,C,NA,default,24,Yes,"I felt that the questions that were meant to be 'attention checks' weren't as clear as you stated they would be in the beginning. There weren't many that I felt I was 100% correct on, mostly because it felt like the majority of responses didn't make sense.",Female,Engligh,NA,24
2724,default,block1,garage,projective,0.95,7260,MC,29,MC,MC,NA,default,24,Yes,"I felt that the questions that were meant to be 'attention checks' weren't as clear as you stated they would be in the beginning. There weren't many that I felt I was 100% correct on, mostly because it felt like the majority of responses didn't make sense.",Female,Engligh,NA,25
2724,default,block1,mary,projective,0.2,6284,reveal,30,reveal,C,NA,default,24,Yes,"I felt that the questions that were meant to be 'attention checks' weren't as clear as you stated they would be in the beginning. There weren't many that I felt I was 100% correct on, mostly because it felt like the majority of responses didn't make sense.",Female,Engligh,NA,26
2724,default,block2,danny,ai,0.97,12298,establish,32,establish,C,NA,default,24,Yes,"I felt that the questions that were meant to be 'attention checks' weren't as clear as you stated they would be in the beginning. There weren't many that I felt I was 100% correct on, mostly because it felt like the majority of responses didn't make sense.",Female,Engligh,NA,27
2724,default,block2,julian,ai,0.94,9243,acknowledge,33,acknowledge,C,NA,default,24,Yes,"I felt that the questions that were meant to be 'attention checks' weren't as clear as you stated they would be in the beginning. There weren't many that I felt I was 100% correct on, mostly because it felt like the majority of responses didn't make sense.",Female,Engligh,NA,28
2724,default,block2,isabella,ai,0.97,8349,confirm,34,confirm,C,NA,default,24,Yes,"I felt that the questions that were meant to be 'attention checks' weren't as clear as you stated they would be in the beginning. There weren't many that I felt I was 100% correct on, mostly because it felt like the majority of responses didn't make sense.",Female,Engligh,NA,29
2724,default,block2,emma,ai,0.9299999999999999,14126,demonstrate,35,demonstrate,C,NA,default,24,Yes,"I felt that the questions that were meant to be 'attention checks' weren't as clear as you stated they would be in the beginning. There weren't many that I felt I was 100% correct on, mostly because it felt like the majority of responses didn't make sense.",Female,Engligh,NA,30
2724,default,block2,pizza,ai,0.20999999999999996,10556,MC,36,MC,MC,NA,default,24,Yes,"I felt that the questions that were meant to be 'attention checks' weren't as clear as you stated they would be in the beginning. There weren't many that I felt I was 100% correct on, mostly because it felt like the majority of responses didn't make sense.",Female,Engligh,NA,31
2724,default,block2,ballet,ai,0.09999999999999998,4567,MC,37,MC,MC,NA,default,24,Yes,"I felt that the questions that were meant to be 'attention checks' weren't as clear as you stated they would be in the beginning. There weren't many that I felt I was 100% correct on, mostly because it felt like the majority of responses didn't make sense.",Female,Engligh,NA,32
2724,default,block2,mia,ai,0.97,4253,say,38,say,C,NA,default,24,Yes,"I felt that the questions that were meant to be 'attention checks' weren't as clear as you stated they would be in the beginning. There weren't many that I felt I was 100% correct on, mostly because it felt like the majority of responses didn't make sense.",Female,Engligh,NA,33
2724,default,block2,josie,ai,0.97,4478,prove,39,prove,C,NA,default,24,Yes,"I felt that the questions that were meant to be 'attention checks' weren't as clear as you stated they would be in the beginning. There weren't many that I felt I was 100% correct on, mostly because it felt like the majority of responses didn't make sense.",Female,Engligh,NA,34
2724,default,block2,zoe,ai,0.96,4080,be_right,40,be_right,C,NA,default,24,Yes,"I felt that the questions that were meant to be 'attention checks' weren't as clear as you stated they would be in the beginning. There weren't many that I felt I was 100% correct on, mostly because it felt like the majority of responses didn't make sense.",Female,Engligh,NA,35
2724,default,block2,charley,ai,0.98,4833,pretend,41,pretend,C,NA,default,24,Yes,"I felt that the questions that were meant to be 'attention checks' weren't as clear as you stated they would be in the beginning. There weren't many that I felt I was 100% correct on, mostly because it felt like the majority of responses didn't make sense.",Female,Engligh,NA,36
2724,default,block2,frank,ai,0.96,4544,think,42,think,C,NA,default,24,Yes,"I felt that the questions that were meant to be 'attention checks' weren't as clear as you stated they would be in the beginning. There weren't many that I felt I was 100% correct on, mostly because it felt like the majority of responses didn't make sense.",Female,Engligh,NA,37
2724,default,block2,jayden,ai,0.97,4038,confess,43,confess,C,NA,default,24,Yes,"I felt that the questions that were meant to be 'attention checks' weren't as clear as you stated they would be in the beginning. There weren't many that I felt I was 100% correct on, mostly because it felt like the majority of responses didn't make sense.",Female,Engligh,NA,38
2724,default,block2,garage,ai,0.020000000000000018,5665,MC,44,MC,MC,NA,default,24,Yes,"I felt that the questions that were meant to be 'attention checks' weren't as clear as you stated they would be in the beginning. There weren't many that I felt I was 100% correct on, mostly because it felt like the majority of responses didn't make sense.",Female,Engligh,NA,39
2724,default,block2,emily,ai,0.97,3916,know,45,know,C,NA,default,24,Yes,"I felt that the questions that were meant to be 'attention checks' weren't as clear as you stated they would be in the beginning. There weren't many that I felt I was 100% correct on, mostly because it felt like the majority of responses didn't make sense.",Female,Engligh,NA,40
2724,default,block2,josh,ai,0.96,5220,admit,46,admit,C,NA,default,24,Yes,"I felt that the questions that were meant to be 'attention checks' weren't as clear as you stated they would be in the beginning. There weren't many that I felt I was 100% correct on, mostly because it felt like the majority of responses didn't make sense.",Female,Engligh,NA,41
2724,default,block2,owen,ai,0.97,3721,see,47,see,C,NA,default,24,Yes,"I felt that the questions that were meant to be 'attention checks' weren't as clear as you stated they would be in the beginning. There weren't many that I felt I was 100% correct on, mostly because it felt like the majority of responses didn't make sense.",Female,Engligh,NA,42
2724,default,block2,hat,ai,0.030000000000000027,4207,MC,48,MC,MC,NA,default,24,Yes,"I felt that the questions that were meant to be 'attention checks' weren't as clear as you stated they would be in the beginning. There weren't many that I felt I was 100% correct on, mostly because it felt like the majority of responses didn't make sense.",Female,Engligh,NA,43
2724,default,block2,jon,ai,0.98,3400,announce,49,announce,C,NA,default,24,Yes,"I felt that the questions that were meant to be 'attention checks' weren't as clear as you stated they would be in the beginning. There weren't many that I felt I was 100% correct on, mostly because it felt like the majority of responses didn't make sense.",Female,Engligh,NA,44
2724,default,block2,kids,ai,0.030000000000000027,4201,MC,50,MC,MC,NA,default,24,Yes,"I felt that the questions that were meant to be 'attention checks' weren't as clear as you stated they would be in the beginning. There weren't many that I felt I was 100% correct on, mostly because it felt like the majority of responses didn't make sense.",Female,Engligh,NA,45
2724,default,block2,sophia,ai,0.97,2991,suggest,51,suggest,C,NA,default,24,Yes,"I felt that the questions that were meant to be 'attention checks' weren't as clear as you stated they would be in the beginning. There weren't many that I felt I was 100% correct on, mostly because it felt like the majority of responses didn't make sense.",Female,Engligh,NA,46
2724,default,block2,muffins,ai,0.050000000000000044,3944,MC,52,MC,MC,NA,default,24,Yes,"I felt that the questions that were meant to be 'attention checks' weren't as clear as you stated they would be in the beginning. There weren't many that I felt I was 100% correct on, mostly because it felt like the majority of responses didn't make sense.",Female,Engligh,NA,47
2724,default,block2,tony,ai,0.95,3664,hear,53,hear,C,NA,default,24,Yes,"I felt that the questions that were meant to be 'attention checks' weren't as clear as you stated they would be in the beginning. There weren't many that I felt I was 100% correct on, mostly because it felt like the majority of responses didn't make sense.",Female,Engligh,NA,48
2724,default,block2,jackson,ai,0.97,3603,discover,54,discover,C,NA,default,24,Yes,"I felt that the questions that were meant to be 'attention checks' weren't as clear as you stated they would be in the beginning. There weren't many that I felt I was 100% correct on, mostly because it felt like the majority of responses didn't make sense.",Female,Engligh,NA,49
2724,default,block2,olivia,ai,0.97,5430,be_annoyed,55,be_annoyed,C,NA,default,24,Yes,"I felt that the questions that were meant to be 'attention checks' weren't as clear as you stated they would be in the beginning. There weren't many that I felt I was 100% correct on, mostly because it felt like the majority of responses didn't make sense.",Female,Engligh,NA,50
2724,default,block2,mary,ai,0.96,3575,reveal,56,reveal,C,NA,default,24,Yes,"I felt that the questions that were meant to be 'attention checks' weren't as clear as you stated they would be in the beginning. There weren't many that I felt I was 100% correct on, mostly because it felt like the majority of responses didn't make sense.",Female,Engligh,NA,51
2724,default,block2,grace,ai,0.99,4666,inform,57,inform,C,NA,default,24,Yes,"I felt that the questions that were meant to be 'attention checks' weren't as clear as you stated they would be in the beginning. There weren't many that I felt I was 100% correct on, mostly because it felt like the majority of responses didn't make sense.",Female,Engligh,NA,52
2555,default,block1,jackson,projective,0.01,14830,announce,5,announce,C,NA,default,18,Yes,NA,Female,English,NA,1
2555,default,block1,charley,projective,0.01,16558,be_right,6,be_right,C,NA,default,18,Yes,NA,Female,English,NA,2
2555,default,block1,hat,projective,0.98,6994,MC,7,MC,MC,NA,default,18,Yes,NA,Female,English,NA,3
2555,default,block1,isabella,projective,0.98,14082,discover,8,discover,C,NA,default,18,Yes,NA,Female,English,NA,4
2555,default,block1,olivia,projective,0.09,11465,say,9,say,C,NA,default,18,Yes,NA,Female,English,NA,5
2555,default,block1,garage,projective,0.98,10154,MC,10,MC,MC,NA,default,18,Yes,NA,Female,English,NA,6
2555,default,block1,josh,projective,0.95,9315,acknowledge,11,acknowledge,C,NA,default,18,Yes,NA,Female,English,NA,7
2555,default,block1,muffins,projective,0.98,5300,MC,12,MC,MC,NA,default,18,Yes,NA,Female,English,NA,8
2555,default,block1,zoe,projective,0.99,7131,hear,13,hear,C,NA,default,18,Yes,NA,Female,English,NA,9
2555,default,block1,danny,projective,0.99,7135,inform,14,inform,C,NA,default,18,Yes,NA,Female,English,NA,10
2555,default,block1,jayden,projective,0.74,7445,admit,15,admit,C,NA,default,18,Yes,NA,Female,English,NA,11
2555,default,block1,emma,projective,0.25,9119,confirm,16,confirm,C,NA,default,18,Yes,NA,Female,English,NA,12
2555,default,block1,frank,projective,0.4,7935,reveal,17,reveal,C,NA,default,18,Yes,NA,Female,English,NA,13
2555,default,block1,tony,projective,0.73,6600,think,18,think,C,NA,default,18,Yes,NA,Female,English,NA,14
2555,default,block1,jon,projective,0.98,8252,pretend,19,pretend,C,NA,default,18,Yes,NA,Female,English,NA,15
2555,default,block1,mia,projective,1,8783,see,20,see,C,NA,default,18,Yes,NA,Female,English,NA,16
2555,default,block1,josie,projective,0.96,6466,establish,21,establish,C,NA,default,18,Yes,NA,Female,English,NA,17
2555,default,block1,pizza,projective,1,6549,MC,22,MC,MC,NA,default,18,Yes,NA,Female,English,NA,18
2555,default,block1,mary,projective,0.99,8601,be_annoyed,23,be_annoyed,C,NA,default,18,Yes,NA,Female,English,NA,19
2555,default,block1,emily,projective,0.17,7984,prove,24,prove,C,NA,default,18,Yes,NA,Female,English,NA,20
2555,default,block1,ballet,projective,1,6149,MC,25,MC,MC,NA,default,18,Yes,NA,Female,English,NA,21
2555,default,block1,kids,projective,0.98,9632,MC,26,MC,MC,NA,default,18,Yes,NA,Female,English,NA,22
2555,default,block1,julian,projective,0.05,8764,demonstrate,27,demonstrate,C,NA,default,18,Yes,NA,Female,English,NA,23
2555,default,block1,grace,projective,0.23,8173,confess,28,confess,C,NA,default,18,Yes,NA,Female,English,NA,24
2555,default,block1,owen,projective,0.91,7497,know,29,know,C,NA,default,18,Yes,NA,Female,English,NA,25
2555,default,block1,sophia,projective,0.76,15755,suggest,30,suggest,C,NA,default,18,Yes,NA,Female,English,NA,26
2555,default,block2,kids,ai,0.20999999999999996,9250,MC,32,MC,MC,NA,default,18,Yes,NA,Female,English,NA,27
2555,default,block2,owen,ai,0.97,10432,know,33,know,C,NA,default,18,Yes,NA,Female,English,NA,28
2555,default,block2,zoe,ai,0.62,8629,hear,34,hear,C,NA,default,18,Yes,NA,Female,English,NA,29
2555,default,block2,josh,ai,0.63,8406,acknowledge,35,acknowledge,C,NA,default,18,Yes,NA,Female,English,NA,30
2555,default,block2,olivia,ai,0.5800000000000001,7418,say,36,say,C,NA,default,18,Yes,NA,Female,English,NA,31
2555,default,block2,emily,ai,0.43000000000000005,8016,prove,37,prove,C,NA,default,18,Yes,NA,Female,English,NA,32
2555,default,block2,mary,ai,0.5,9500,be_annoyed,38,be_annoyed,C,NA,default,18,Yes,NA,Female,English,NA,33
2555,default,block2,emma,ai,0.38,9252,confirm,39,confirm,C,NA,default,18,Yes,NA,Female,English,NA,34
2555,default,block2,isabella,ai,0.6799999999999999,11398,discover,40,discover,C,NA,default,18,Yes,NA,Female,English,NA,35
2555,default,block2,garage,ai,0.33999999999999997,7603,MC,41,MC,MC,NA,default,18,Yes,NA,Female,English,NA,36
2555,default,block2,frank,ai,0.45999999999999996,4932,reveal,42,reveal,C,NA,default,18,Yes,NA,Female,English,NA,37
2555,default,block2,josie,ai,0.37,5111,establish,43,establish,C,NA,default,18,Yes,NA,Female,English,NA,38
2555,default,block2,jon,ai,0.6699999999999999,9388,pretend,44,pretend,C,NA,default,18,Yes,NA,Female,English,NA,39
2555,default,block2,pizza,ai,0.27,11151,MC,45,MC,MC,NA,default,18,Yes,NA,Female,English,NA,40
2555,default,block2,mia,ai,0.6,7700,see,46,see,C,NA,default,18,Yes,NA,Female,English,NA,41
2555,default,block2,tony,ai,0.6699999999999999,7620,think,47,think,C,NA,default,18,Yes,NA,Female,English,NA,42
2555,default,block2,danny,ai,0.64,5366,inform,48,inform,C,NA,default,18,Yes,NA,Female,English,NA,43
2555,default,block2,charley,ai,0.41000000000000003,7092,be_right,49,be_right,C,NA,default,18,Yes,NA,Female,English,NA,44
2555,default,block2,ballet,ai,0.22999999999999998,5304,MC,50,MC,MC,NA,default,18,Yes,NA,Female,English,NA,45
2555,default,block2,jackson,ai,0.35,4652,announce,51,announce,C,NA,default,18,Yes,NA,Female,English,NA,46
2555,default,block2,hat,ai,0.42000000000000004,6817,MC,52,MC,MC,NA,default,18,Yes,NA,Female,English,NA,47
2555,default,block2,julian,ai,0.51,5199,demonstrate,53,demonstrate,C,NA,default,18,Yes,NA,Female,English,NA,48
2555,default,block2,muffins,ai,0.36,6319,MC,54,MC,MC,NA,default,18,Yes,NA,Female,English,NA,49
2555,default,block2,sophia,ai,0.62,7832,suggest,55,suggest,C,NA,default,18,Yes,NA,Female,English,NA,50
2555,default,block2,grace,ai,0.54,4033,confess,56,confess,C,NA,default,18,Yes,NA,Female,English,NA,51
2555,default,block2,jayden,ai,0.39,4905,admit,57,admit,C,NA,default,18,Yes,NA,Female,English,NA,52
2661,default,block1,emily,ai,0.72,23007,admit,5,admit,C,NA,default,19,Yes,"Was confused about the format at first, mainly because the examples and what section was first was flipped.",Male,English,NA,1
2661,default,block1,emma,ai,0.8,17251,suggest,6,suggest,C,NA,default,19,Yes,"Was confused about the format at first, mainly because the examples and what section was first was flipped.",Male,English,NA,2
2661,default,block1,charley,ai,0.83,15646,say,7,say,C,NA,default,19,Yes,"Was confused about the format at first, mainly because the examples and what section was first was flipped.",Male,English,NA,3
2661,default,block1,isabella,ai,0.77,12045,acknowledge,8,acknowledge,C,NA,default,19,Yes,"Was confused about the format at first, mainly because the examples and what section was first was flipped.",Male,English,NA,4
2661,default,block1,kids,ai,0.18000000000000005,19133,MC,9,MC,MC,NA,default,19,Yes,"Was confused about the format at first, mainly because the examples and what section was first was flipped.",Male,English,NA,5
2661,default,block1,pizza,ai,0.24,6863,MC,10,MC,MC,NA,default,19,Yes,"Was confused about the format at first, mainly because the examples and what section was first was flipped.",Male,English,NA,6
2661,default,block1,hat,ai,0.28,9697,MC,11,MC,MC,NA,default,19,Yes,"Was confused about the format at first, mainly because the examples and what section was first was flipped.",Male,English,NA,7
2661,default,block1,josh,ai,0.83,18455,demonstrate,12,demonstrate,C,NA,default,19,Yes,"Was confused about the format at first, mainly because the examples and what section was first was flipped.",Male,English,NA,8
2661,default,block1,olivia,ai,0.24,9579,know,13,know,C,NA,default,19,Yes,"Was confused about the format at first, mainly because the examples and what section was first was flipped.",Male,English,NA,9
2661,default,block1,owen,ai,0.49,8234,pretend,14,pretend,C,NA,default,19,Yes,"Was confused about the format at first, mainly because the examples and what section was first was flipped.",Male,English,NA,10
2661,default,block1,julian,ai,0.24,7436,reveal,15,reveal,C,NA,default,19,Yes,"Was confused about the format at first, mainly because the examples and what section was first was flipped.",Male,English,NA,11
2661,default,block1,jackson,ai,0.86,9196,announce,16,announce,C,NA,default,19,Yes,"Was confused about the format at first, mainly because the examples and what section was first was flipped.",Male,English,NA,12
2661,default,block1,ballet,ai,0.18000000000000005,7226,MC,17,MC,MC,NA,default,19,Yes,"Was confused about the format at first, mainly because the examples and what section was first was flipped.",Male,English,NA,13
2661,default,block1,tony,ai,0.86,5044,hear,18,hear,C,NA,default,19,Yes,"Was confused about the format at first, mainly because the examples and what section was first was flipped.",Male,English,NA,14
2661,default,block1,jon,ai,0.84,10356,be_annoyed,19,be_annoyed,C,NA,default,19,Yes,"Was confused about the format at first, mainly because the examples and what section was first was flipped.",Male,English,NA,15
2661,default,block1,zoe,ai,0.84,5689,discover,20,discover,C,NA,default,19,Yes,"Was confused about the format at first, mainly because the examples and what section was first was flipped.",Male,English,NA,16
2661,default,block1,mia,ai,0.84,9518,think,21,think,C,NA,default,19,Yes,"Was confused about the format at first, mainly because the examples and what section was first was flipped.",Male,English,NA,17
2661,default,block1,josie,ai,0.24,5271,inform,22,inform,C,NA,default,19,Yes,"Was confused about the format at first, mainly because the examples and what section was first was flipped.",Male,English,NA,18
2661,default,block1,sophia,ai,0.8200000000000001,5890,confess,23,confess,C,NA,default,19,Yes,"Was confused about the format at first, mainly because the examples and what section was first was flipped.",Male,English,NA,19
2661,default,block1,jayden,ai,0.19999999999999996,11163,prove,24,prove,C,NA,default,19,Yes,"Was confused about the format at first, mainly because the examples and what section was first was flipped.",Male,English,NA,20
2661,default,block1,grace,ai,0.020000000000000018,15134,be_right,25,be_right,C,NA,default,19,Yes,"Was confused about the format at first, mainly because the examples and what section was first was flipped.",Male,English,NA,21
2661,default,block1,garage,ai,0.15000000000000002,13858,MC,26,MC,MC,NA,default,19,Yes,"Was confused about the format at first, mainly because the examples and what section was first was flipped.",Male,English,NA,22
2661,default,block1,muffins,ai,0.020000000000000018,4880,MC,27,MC,MC,NA,default,19,Yes,"Was confused about the format at first, mainly because the examples and what section was first was flipped.",Male,English,NA,23
2661,default,block1,frank,ai,0.85,6419,see,28,see,C,NA,default,19,Yes,"Was confused about the format at first, mainly because the examples and what section was first was flipped.",Male,English,NA,24
2661,default,block1,danny,ai,0.10999999999999999,11359,confirm,29,confirm,C,NA,default,19,Yes,"Was confused about the format at first, mainly because the examples and what section was first was flipped.",Male,English,NA,25
2661,default,block1,mary,ai,0.81,12618,establish,30,establish,C,NA,default,19,Yes,"Was confused about the format at first, mainly because the examples and what section was first was flipped.",Male,English,NA,26
2661,default,block2,jayden,projective,0,28785,prove,32,prove,C,NA,default,19,Yes,"Was confused about the format at first, mainly because the examples and what section was first was flipped.",Male,English,NA,27
2661,default,block2,isabella,projective,0.61,12071,acknowledge,33,acknowledge,C,NA,default,19,Yes,"Was confused about the format at first, mainly because the examples and what section was first was flipped.",Male,English,NA,28
2661,default,block2,pizza,projective,1,12717,MC,34,MC,MC,NA,default,19,Yes,"Was confused about the format at first, mainly because the examples and what section was first was flipped.",Male,English,NA,29
2661,default,block2,danny,projective,0.44,18681,confirm,35,confirm,C,NA,default,19,Yes,"Was confused about the format at first, mainly because the examples and what section was first was flipped.",Male,English,NA,30
2661,default,block2,kids,projective,1,10845,MC,36,MC,MC,NA,default,19,Yes,"Was confused about the format at first, mainly because the examples and what section was first was flipped.",Male,English,NA,31
2661,default,block2,owen,projective,0.51,5658,pretend,37,pretend,C,NA,default,19,Yes,"Was confused about the format at first, mainly because the examples and what section was first was flipped.",Male,English,NA,32
2661,default,block2,jon,projective,1,13649,be_annoyed,38,be_annoyed,C,NA,default,19,Yes,"Was confused about the format at first, mainly because the examples and what section was first was flipped.",Male,English,NA,33
