workerid,proliferate.condition,block,content,question_type,response,rt,short_trigger,slide_number_in_experiment,trigger,trigger_class,catch_trials,subject_information.age,subject_information.american,subject_information.comments,subject_information.gender,subject_information.language,system.Browser,system.OS,system.screenH,system.screenW,time_in_minutes,error
2606,default,block1,kids,ai,0.01,17164,MC,5,MC,MC,[],28,Yes,,Female,English,Chrome,Mac,900,1440,9.836216666666669,
2606,default,block1,emma,ai,0.07,13766,know,6,know,C,[],28,Yes,,Female,English,Chrome,Mac,900,1440,9.836216666666669,
2606,default,block1,jayden,ai,0.03,10131,confess,7,confess,C,[],28,Yes,,Female,English,Chrome,Mac,900,1440,9.836216666666669,
2606,default,block1,frank,ai,0.44,18172,pretend,8,pretend,C,[],28,Yes,,Female,English,Chrome,Mac,900,1440,9.836216666666669,
2606,default,block1,mia,ai,0.01,8935,reveal,9,reveal,C,[],28,Yes,,Female,English,Chrome,Mac,900,1440,9.836216666666669,
2606,default,block1,garage,ai,0.34,17689,MC,10,MC,MC,[],28,Yes,,Female,English,Chrome,Mac,900,1440,9.836216666666669,
2606,default,block1,tony,ai,0.01,7394,prove,11,prove,C,[],28,Yes,,Female,English,Chrome,Mac,900,1440,9.836216666666669,
2606,default,block1,owen,ai,0.01,6888,confirm,12,confirm,C,[],28,Yes,,Female,English,Chrome,Mac,900,1440,9.836216666666669,
2606,default,block1,grace,ai,0.02,7708,discover,13,discover,C,[],28,Yes,,Female,English,Chrome,Mac,900,1440,9.836216666666669,
2606,default,block1,zoe,ai,0.02,6573,hear,14,hear,C,[],28,Yes,,Female,English,Chrome,Mac,900,1440,9.836216666666669,
2606,default,block1,danny,ai,0.01,6551,acknowledge,15,acknowledge,C,[],28,Yes,,Female,English,Chrome,Mac,900,1440,9.836216666666669,
2606,default,block1,mary,ai,0.01,6238,demonstrate,16,demonstrate,C,[],28,Yes,,Female,English,Chrome,Mac,900,1440,9.836216666666669,
2606,default,block1,jackson,ai,0.02,9805,admit,17,admit,C,[],28,Yes,,Female,English,Chrome,Mac,900,1440,9.836216666666669,
2606,default,block1,isabella,ai,0.03,9066,be_right,18,be_right,C,[],28,Yes,,Female,English,Chrome,Mac,900,1440,9.836216666666669,
2606,default,block1,charley,ai,0.62,9398,think,19,think,C,[],28,Yes,,Female,English,Chrome,Mac,900,1440,9.836216666666669,
2606,default,block1,hat,ai,0.45,9389,MC,20,MC,MC,[],28,Yes,,Female,English,Chrome,Mac,900,1440,9.836216666666669,
2606,default,block1,pizza,ai,0.7,11994,MC,21,MC,MC,[],28,Yes,,Female,English,Chrome,Mac,900,1440,9.836216666666669,
2606,default,block1,josie,ai,0.02,6521,establish,22,establish,C,[],28,Yes,,Female,English,Chrome,Mac,900,1440,9.836216666666669,
2606,default,block1,olivia,ai,0.03,8036,announce,23,announce,C,[],28,Yes,,Female,English,Chrome,Mac,900,1440,9.836216666666669,
2606,default,block1,ballet,ai,0.57,11038,MC,24,MC,MC,[],28,Yes,,Female,English,Chrome,Mac,900,1440,9.836216666666669,
2606,default,block1,muffins,ai,0.73,10013,MC,25,MC,MC,[],28,Yes,,Female,English,Chrome,Mac,900,1440,9.836216666666669,
2606,default,block1,josh,ai,0.03,27006,suggest,26,suggest,C,[],28,Yes,,Female,English,Chrome,Mac,900,1440,9.836216666666669,
2606,default,block1,emily,ai,0.02,6141,say,27,say,C,[],28,Yes,,Female,English,Chrome,Mac,900,1440,9.836216666666669,
2606,default,block1,julian,ai,0.02,12209,be_annoyed,28,be_annoyed,C,[],28,Yes,,Female,English,Chrome,Mac,900,1440,9.836216666666669,
2606,default,block1,jon,ai,0.04,12103,inform,29,inform,C,[],28,Yes,,Female,English,Chrome,Mac,900,1440,9.836216666666669,
2606,default,block1,sophia,ai,0.31,8720,see,30,see,C,[],28,Yes,,Female,English,Chrome,Mac,900,1440,9.836216666666669,
2606,default,block2,frank,projective,0.7,12595,pretend,32,pretend,C,[],28,Yes,,Female,English,Chrome,Mac,900,1440,9.836216666666669,
2606,default,block2,sophia,projective,0.95,6534,see,33,see,C,[],28,Yes,,Female,English,Chrome,Mac,900,1440,9.836216666666669,
2606,default,block2,olivia,projective,0.93,9908,announce,34,announce,C,[],28,Yes,,Female,English,Chrome,Mac,900,1440,9.836216666666669,
2606,default,block2,zoe,projective,0.85,6099,hear,35,hear,C,[],28,Yes,,Female,English,Chrome,Mac,900,1440,9.836216666666669,
2606,default,block2,jackson,projective,0.9,5304,admit,36,admit,C,[],28,Yes,,Female,English,Chrome,Mac,900,1440,9.836216666666669,
2606,default,block2,josie,projective,0.74,8602,establish,37,establish,C,[],28,Yes,,Female,English,Chrome,Mac,900,1440,9.836216666666669,
2606,default,block2,muffins,projective,0.98,5762,MC,38,MC,MC,[],28,Yes,,Female,English,Chrome,Mac,900,1440,9.836216666666669,
2606,default,block2,jon,projective,0.94,25684,inform,39,inform,C,[],28,Yes,,Female,English,Chrome,Mac,900,1440,9.836216666666669,
2606,default,block2,ballet,projective,1,4419,MC,40,MC,MC,[],28,Yes,,Female,English,Chrome,Mac,900,1440,9.836216666666669,
2606,default,block2,owen,projective,0.83,8145,confirm,41,confirm,C,[],28,Yes,,Female,English,Chrome,Mac,900,1440,9.836216666666669,
2606,default,block2,jayden,projective,0.82,8869,confess,42,confess,C,[],28,Yes,,Female,English,Chrome,Mac,900,1440,9.836216666666669,
2606,default,block2,danny,projective,0.98,4675,acknowledge,43,acknowledge,C,[],28,Yes,,Female,English,Chrome,Mac,900,1440,9.836216666666669,
2606,default,block2,emily,projective,0.8,7041,say,44,say,C,[],28,Yes,,Female,English,Chrome,Mac,900,1440,9.836216666666669,
2606,default,block2,grace,projective,0.9,5510,discover,45,discover,C,[],28,Yes,,Female,English,Chrome,Mac,900,1440,9.836216666666669,
2606,default,block2,charley,projective,0.42,11075,think,46,think,C,[],28,Yes,,Female,English,Chrome,Mac,900,1440,9.836216666666669,
2606,default,block2,pizza,projective,0.98,5217,MC,47,MC,MC,[],28,Yes,,Female,English,Chrome,Mac,900,1440,9.836216666666669,
2606,default,block2,garage,projective,0.99,4965,MC,48,MC,MC,[],28,Yes,,Female,English,Chrome,Mac,900,1440,9.836216666666669,
2606,default,block2,mary,projective,0.32,10476,demonstrate,49,demonstrate,C,[],28,Yes,,Female,English,Chrome,Mac,900,1440,9.836216666666669,
2606,default,block2,isabella,projective,0.39,14647,be_right,50,be_right,C,[],28,Yes,,Female,English,Chrome,Mac,900,1440,9.836216666666669,
2606,default,block2,julian,projective,0.99,12799,be_annoyed,51,be_annoyed,C,[],28,Yes,,Female,English,Chrome,Mac,900,1440,9.836216666666669,
2606,default,block2,hat,projective,0.99,6391,MC,52,MC,MC,[],28,Yes,,Female,English,Chrome,Mac,900,1440,9.836216666666669,
2606,default,block2,mia,projective,0.66,6239,reveal,53,reveal,C,[],28,Yes,,Female,English,Chrome,Mac,900,1440,9.836216666666669,
2606,default,block2,kids,projective,0.99,17806,MC,54,MC,MC,[],28,Yes,,Female,English,Chrome,Mac,900,1440,9.836216666666669,
2606,default,block2,tony,projective,0.26,14610,prove,55,prove,C,[],28,Yes,,Female,English,Chrome,Mac,900,1440,9.836216666666669,
2606,default,block2,josh,projective,0.23,11811,suggest,56,suggest,C,[],28,Yes,,Female,English,Chrome,Mac,900,1440,9.836216666666669,
2606,default,block2,emma,projective,0.97,4731,know,57,know,C,[],28,Yes,,Female,English,Chrome,Mac,900,1440,9.836216666666669,
2616,default,block1,mia,projective,0.97,9991,see,5,see,C,[],18,Yes,,Female,English,Chrome,Windows,864,1536,7.0195,
2616,default,block1,jon,projective,0.97,9074,inform,6,inform,C,[],18,Yes,,Female,English,Chrome,Windows,864,1536,7.0195,
2616,default,block1,emily,projective,1,6259,admit,7,admit,C,[],18,Yes,,Female,English,Chrome,Windows,864,1536,7.0195,
2616,default,block1,sophia,projective,0.99,8167,announce,8,announce,C,[],18,Yes,,Female,English,Chrome,Windows,864,1536,7.0195,
2616,default,block1,owen,projective,1,11344,reveal,9,reveal,C,[],18,Yes,,Female,English,Chrome,Windows,864,1536,7.0195,
2616,default,block1,charley,projective,0.01,14329,be_right,10,be_right,C,[],18,Yes,,Female,English,Chrome,Windows,864,1536,7.0195,
2616,default,block1,muffins,projective,1,6158,MC,11,MC,MC,[],18,Yes,,Female,English,Chrome,Windows,864,1536,7.0195,
2616,default,block1,josie,projective,1,8381,be_annoyed,12,be_annoyed,C,[],18,Yes,,Female,English,Chrome,Windows,864,1536,7.0195,
2616,default,block1,hat,projective,0.99,5770,MC,13,MC,MC,[],18,Yes,,Female,English,Chrome,Windows,864,1536,7.0195,
2616,default,block1,jackson,projective,0.13,9522,confirm,14,confirm,C,[],18,Yes,,Female,English,Chrome,Windows,864,1536,7.0195,
2616,default,block1,garage,projective,1,6460,MC,15,MC,MC,[],18,Yes,,Female,English,Chrome,Windows,864,1536,7.0195,
2616,default,block1,isabella,projective,0,8815,prove,16,prove,C,[],18,Yes,,Female,English,Chrome,Windows,864,1536,7.0195,
2616,default,block1,jayden,projective,0.12,8887,demonstrate,17,demonstrate,C,[],18,Yes,,Female,English,Chrome,Windows,864,1536,7.0195,
2616,default,block1,emma,projective,0,4484,suggest,18,suggest,C,[],18,Yes,,Female,English,Chrome,Windows,864,1536,7.0195,
2616,default,block1,frank,projective,0,4943,confess,19,confess,C,[],18,Yes,,Female,English,Chrome,Windows,864,1536,7.0195,
2616,default,block1,tony,projective,0,4340,establish,20,establish,C,[],18,Yes,,Female,English,Chrome,Windows,864,1536,7.0195,
2616,default,block1,grace,projective,0.14,6499,pretend,21,pretend,C,[],18,Yes,,Female,English,Chrome,Windows,864,1536,7.0195,
2616,default,block1,josh,projective,1,5973,know,22,know,C,[],18,Yes,,Female,English,Chrome,Windows,864,1536,7.0195,
2616,default,block1,pizza,projective,1,4402,MC,23,MC,MC,[],18,Yes,,Female,English,Chrome,Windows,864,1536,7.0195,
2616,default,block1,danny,projective,1,5013,discover,24,discover,C,[],18,Yes,,Female,English,Chrome,Windows,864,1536,7.0195,
2616,default,block1,ballet,projective,1,4951,MC,25,MC,MC,[],18,Yes,,Female,English,Chrome,Windows,864,1536,7.0195,
2616,default,block1,mary,projective,1,4652,hear,26,hear,C,[],18,Yes,,Female,English,Chrome,Windows,864,1536,7.0195,
2616,default,block1,olivia,projective,0.67,7793,think,27,think,C,[],18,Yes,,Female,English,Chrome,Windows,864,1536,7.0195,
2616,default,block1,kids,projective,1,4201,MC,28,MC,MC,[],18,Yes,,Female,English,Chrome,Windows,864,1536,7.0195,
2616,default,block1,julian,projective,0,5069,say,29,say,C,[],18,Yes,,Female,English,Chrome,Windows,864,1536,7.0195,
2616,default,block1,zoe,projective,0.82,8931,acknowledge,30,acknowledge,C,[],18,Yes,,Female,English,Chrome,Windows,864,1536,7.0195,
2616,default,block2,muffins,ai,0,6607,MC,32,MC,MC,[],18,Yes,,Female,English,Chrome,Windows,864,1536,7.0195,
2616,default,block2,mia,ai,0.03,5876,see,33,see,C,[],18,Yes,,Female,English,Chrome,Windows,864,1536,7.0195,
2616,default,block2,kids,ai,0,6124,MC,34,MC,MC,[],18,Yes,,Female,English,Chrome,Windows,864,1536,7.0195,
2616,default,block2,tony,ai,0,4798,establish,35,establish,C,[],18,Yes,,Female,English,Chrome,Windows,864,1536,7.0195,
2616,default,block2,ballet,ai,0,9059,MC,36,MC,MC,[],18,Yes,,Female,English,Chrome,Windows,864,1536,7.0195,
2616,default,block2,charley,ai,0,7809,be_right,37,be_right,C,[],18,Yes,,Female,English,Chrome,Windows,864,1536,7.0195,
2616,default,block2,olivia,ai,0.34,11956,think,38,think,C,[],18,Yes,,Female,English,Chrome,Windows,864,1536,7.0195,
2616,default,block2,grace,ai,0.35,7592,pretend,39,pretend,C,[],18,Yes,,Female,English,Chrome,Windows,864,1536,7.0195,
2616,default,block2,garage,ai,0.59,9232,MC,40,MC,MC,[],18,Yes,,Female,English,Chrome,Windows,864,1536,7.0195,
2616,default,block2,josie,ai,0.43,9601,be_annoyed,41,be_annoyed,C,[],18,Yes,,Female,English,Chrome,Windows,864,1536,7.0195,
2616,default,block2,jackson,ai,0.1,4756,confirm,42,confirm,C,[],18,Yes,,Female,English,Chrome,Windows,864,1536,7.0195,
2616,default,block2,mary,ai,0,6007,hear,43,hear,C,[],18,Yes,,Female,English,Chrome,Windows,864,1536,7.0195,
2616,default,block2,jon,ai,0,4857,inform,44,inform,C,[],18,Yes,,Female,English,Chrome,Windows,864,1536,7.0195,
2616,default,block2,sophia,ai,0.09,5672,announce,45,announce,C,[],18,Yes,,Female,English,Chrome,Windows,864,1536,7.0195,
2616,default,block2,emily,ai,0,4899,admit,46,admit,C,[],18,Yes,,Female,English,Chrome,Windows,864,1536,7.0195,
2616,default,block2,josh,ai,0.06,7441,know,47,know,C,[],18,Yes,,Female,English,Chrome,Windows,864,1536,7.0195,
2616,default,block2,danny,ai,0,5168,discover,48,discover,C,[],18,Yes,,Female,English,Chrome,Windows,864,1536,7.0195,
2616,default,block2,pizza,ai,0,5230,MC,49,MC,MC,[],18,Yes,,Female,English,Chrome,Windows,864,1536,7.0195,
2616,default,block2,isabella,ai,0.08,8291,prove,50,prove,C,[],18,Yes,,Female,English,Chrome,Windows,864,1536,7.0195,
2616,default,block2,emma,ai,0.02,5765,suggest,51,suggest,C,[],18,Yes,,Female,English,Chrome,Windows,864,1536,7.0195,
2616,default,block2,zoe,ai,0.1,5303,acknowledge,52,acknowledge,C,[],18,Yes,,Female,English,Chrome,Windows,864,1536,7.0195,
2616,default,block2,owen,ai,0.26,7349,reveal,53,reveal,C,[],18,Yes,,Female,English,Chrome,Windows,864,1536,7.0195,
2616,default,block2,hat,ai,0.65,5636,MC,54,MC,MC,[],18,Yes,,Female,English,Chrome,Windows,864,1536,7.0195,
2616,default,block2,julian,ai,0.01,5178,say,55,say,C,[],18,Yes,,Female,English,Chrome,Windows,864,1536,7.0195,
2616,default,block2,jayden,ai,0.31,4924,demonstrate,56,demonstrate,C,[],18,Yes,,Female,English,Chrome,Windows,864,1536,7.0195,
2616,default,block2,frank,ai,0.15,4300,confess,57,confess,C,[],18,Yes,,Female,English,Chrome,Windows,864,1536,7.0195,
2747,default,block1,danny,ai,0.02,18552,confess,5,confess,C,[],29,Yes,,Female,English,Chrome,Mac,900,1440,10.1309,
2747,default,block1,olivia,ai,0.02,15208,confirm,6,confirm,C,[],29,Yes,,Female,English,Chrome,Mac,900,1440,10.1309,
2747,default,block1,hat,ai,0.8,13493,MC,7,MC,MC,[],29,Yes,,Female,English,Chrome,Mac,900,1440,10.1309,
2747,default,block1,isabella,ai,0.05,17849,establish,8,establish,C,[],29,Yes,,Female,English,Chrome,Mac,900,1440,10.1309,
2747,default,block1,garage,ai,0.82,15375,MC,9,MC,MC,[],29,Yes,,Female,English,Chrome,Mac,900,1440,10.1309,
2747,default,block1,mia,ai,0.07,9956,demonstrate,10,demonstrate,C,[],29,Yes,,Female,English,Chrome,Mac,900,1440,10.1309,
2747,default,block1,charley,ai,0.03,13018,reveal,11,reveal,C,[],29,Yes,,Female,English,Chrome,Mac,900,1440,10.1309,
2747,default,block1,owen,ai,0.16,18144,be_annoyed,12,be_annoyed,C,[],29,Yes,,Female,English,Chrome,Mac,900,1440,10.1309,
2747,default,block1,sophia,ai,0.14,5873,announce,13,announce,C,[],29,Yes,,Female,English,Chrome,Mac,900,1440,10.1309,
2747,default,block1,jon,ai,0.15,24745,be_right,14,be_right,C,[],29,Yes,,Female,English,Chrome,Mac,900,1440,10.1309,
2747,default,block1,frank,ai,0.15,12918,inform,15,inform,C,[],29,Yes,,Female,English,Chrome,Mac,900,1440,10.1309,
2747,default,block1,josh,ai,0.4,15407,hear,16,hear,C,[],29,Yes,,Female,English,Chrome,Mac,900,1440,10.1309,
2747,default,block1,julian,ai,0.2,17934,see,17,see,C,[],29,Yes,,Female,English,Chrome,Mac,900,1440,10.1309,
2747,default,block1,emma,ai,0.25,29805,admit,18,admit,C,[],29,Yes,,Female,English,Chrome,Mac,900,1440,10.1309,
2747,default,block1,mary,ai,0.53,10814,discover,19,discover,C,[],29,Yes,,Female,English,Chrome,Mac,900,1440,10.1309,
2747,default,block1,kids,ai,0.96,15058,MC,20,MC,MC,[],29,Yes,,Female,English,Chrome,Mac,900,1440,10.1309,
2747,default,block1,muffins,ai,0.97,10577,MC,21,MC,MC,[],29,Yes,,Female,English,Chrome,Mac,900,1440,10.1309,
2747,default,block1,jayden,ai,0.06,20344,prove,22,prove,C,[],29,Yes,,Female,English,Chrome,Mac,900,1440,10.1309,
2747,default,block1,zoe,ai,0.03,8423,suggest,23,suggest,C,[],29,Yes,,Female,English,Chrome,Mac,900,1440,10.1309,
2747,default,block1,emily,ai,0.12,5751,say,24,say,C,[],29,Yes,,Female,English,Chrome,Mac,900,1440,10.1309,
2747,default,block1,grace,ai,0.1,7484,pretend,25,pretend,C,[],29,Yes,,Female,English,Chrome,Mac,900,1440,10.1309,
2747,default,block1,pizza,ai,0.95,7456,MC,26,MC,MC,[],29,Yes,,Female,English,Chrome,Mac,900,1440,10.1309,
2747,default,block1,josie,ai,0.28,12787,know,27,know,C,[],29,Yes,,Female,English,Chrome,Mac,900,1440,10.1309,
2747,default,block1,ballet,ai,0.98,5282,MC,28,MC,MC,[],29,Yes,,Female,English,Chrome,Mac,900,1440,10.1309,
2747,default,block1,tony,ai,0.04,6191,think,29,think,C,[],29,Yes,,Female,English,Chrome,Mac,900,1440,10.1309,
2747,default,block1,jackson,ai,0.04,6249,acknowledge,30,acknowledge,C,[],29,Yes,,Female,English,Chrome,Mac,900,1440,10.1309,
2747,default,block2,mia,projective,0.15,9055,demonstrate,32,demonstrate,C,[],29,Yes,,Female,English,Chrome,Mac,900,1440,10.1309,
2747,default,block2,josie,projective,0.82,6487,know,33,know,C,[],29,Yes,,Female,English,Chrome,Mac,900,1440,10.1309,
2747,default,block2,emily,projective,0.22,5746,say,34,say,C,[],29,Yes,,Female,English,Chrome,Mac,900,1440,10.1309,
2747,default,block2,tony,projective,0.46,6686,think,35,think,C,[],29,Yes,,Female,English,Chrome,Mac,900,1440,10.1309,
2747,default,block2,muffins,projective,0.93,6791,MC,36,MC,MC,[],29,Yes,,Female,English,Chrome,Mac,900,1440,10.1309,
2747,default,block2,mary,projective,0.72,4573,discover,37,discover,C,[],29,Yes,,Female,English,Chrome,Mac,900,1440,10.1309,
2747,default,block2,sophia,projective,0.83,10727,announce,38,announce,C,[],29,Yes,,Female,English,Chrome,Mac,900,1440,10.1309,
2747,default,block2,isabella,projective,0.02,6152,establish,39,establish,C,[],29,Yes,,Female,English,Chrome,Mac,900,1440,10.1309,
2747,default,block2,jackson,projective,0.82,5856,acknowledge,40,acknowledge,C,[],29,Yes,,Female,English,Chrome,Mac,900,1440,10.1309,
2747,default,block2,danny,projective,0.59,6297,confess,41,confess,C,[],29,Yes,,Female,English,Chrome,Mac,900,1440,10.1309,
2747,default,block2,charley,projective,0.8,6757,reveal,42,reveal,C,[],29,Yes,,Female,English,Chrome,Mac,900,1440,10.1309,
2747,default,block2,jayden,projective,0.03,6852,prove,43,prove,C,[],29,Yes,,Female,English,Chrome,Mac,900,1440,10.1309,
2747,default,block2,josh,projective,0.83,8227,hear,44,hear,C,[],29,Yes,,Female,English,Chrome,Mac,900,1440,10.1309,
2747,default,block2,garage,projective,0.88,7456,MC,45,MC,MC,[],29,Yes,,Female,English,Chrome,Mac,900,1440,10.1309,
2747,default,block2,pizza,projective,0.86,4137,MC,46,MC,MC,[],29,Yes,,Female,English,Chrome,Mac,900,1440,10.1309,
2747,default,block2,jon,projective,0.08,9122,be_right,47,be_right,C,[],29,Yes,,Female,English,Chrome,Mac,900,1440,10.1309,
2747,default,block2,olivia,projective,0.08,5390,confirm,48,confirm,C,[],29,Yes,,Female,English,Chrome,Mac,900,1440,10.1309,
2747,default,block2,zoe,projective,0.13,9030,suggest,49,suggest,C,[],29,Yes,,Female,English,Chrome,Mac,900,1440,10.1309,
2747,default,block2,frank,projective,0.91,6121,inform,50,inform,C,[],29,Yes,,Female,English,Chrome,Mac,900,1440,10.1309,
2747,default,block2,owen,projective,0.85,8632,be_annoyed,51,be_annoyed,C,[],29,Yes,,Female,English,Chrome,Mac,900,1440,10.1309,
2747,default,block2,julian,projective,0.82,5632,see,52,see,C,[],29,Yes,,Female,English,Chrome,Mac,900,1440,10.1309,
2747,default,block2,kids,projective,0.88,13882,MC,53,MC,MC,[],29,Yes,,Female,English,Chrome,Mac,900,1440,10.1309,
2747,default,block2,hat,projective,0.88,5899,MC,54,MC,MC,[],29,Yes,,Female,English,Chrome,Mac,900,1440,10.1309,
2747,default,block2,ballet,projective,0.82,4794,MC,55,MC,MC,[],29,Yes,,Female,English,Chrome,Mac,900,1440,10.1309,
2747,default,block2,grace,projective,0.1,9563,pretend,56,pretend,C,[],29,Yes,,Female,English,Chrome,Mac,900,1440,10.1309,
2747,default,block2,emma,projective,0.69,13820,admit,57,admit,C,[],29,Yes,,Female,English,Chrome,Mac,900,1440,10.1309,
2749,default,block1,emma,ai,0.16,29275,suggest,5,suggest,C,[],22,Yes,,Female,"english, spanish",Chrome,Mac,900,1440,10.311483333333332,
2749,default,block1,mia,ai,0.14,24047,acknowledge,6,acknowledge,C,[],22,Yes,,Female,"english, spanish",Chrome,Mac,900,1440,10.311483333333332,
2749,default,block1,jon,ai,0.16,29369,discover,7,discover,C,[],22,Yes,,Female,"english, spanish",Chrome,Mac,900,1440,10.311483333333332,
2749,default,block1,charley,ai,0.13,22206,pretend,8,pretend,C,[],22,Yes,,Female,"english, spanish",Chrome,Mac,900,1440,10.311483333333332,
2749,default,block1,zoe,ai,0.12,7022,establish,9,establish,C,[],22,Yes,,Female,"english, spanish",Chrome,Mac,900,1440,10.311483333333332,
2749,default,block1,sophia,ai,0.12,10857,think,10,think,C,[],22,Yes,,Female,"english, spanish",Chrome,Mac,900,1440,10.311483333333332,
2749,default,block1,hat,ai,0.93,20063,MC,11,MC,MC,[],22,Yes,,Female,"english, spanish",Chrome,Mac,900,1440,10.311483333333332,
2749,default,block1,julian,ai,0.1,8217,see,12,see,C,[],22,Yes,,Female,"english, spanish",Chrome,Mac,900,1440,10.311483333333332,
2749,default,block1,josh,ai,0.09,8017,know,13,know,C,[],22,Yes,,Female,"english, spanish",Chrome,Mac,900,1440,10.311483333333332,
2749,default,block1,frank,ai,0.4,12653,be_right,14,be_right,C,[],22,Yes,,Female,"english, spanish",Chrome,Mac,900,1440,10.311483333333332,
2749,default,block1,garage,ai,0.94,8697,MC,15,MC,MC,[],22,Yes,,Female,"english, spanish",Chrome,Mac,900,1440,10.311483333333332,
2749,default,block1,jackson,ai,0.13,5472,announce,16,announce,C,[],22,Yes,,Female,"english, spanish",Chrome,Mac,900,1440,10.311483333333332,
2749,default,block1,ballet,ai,0.96,6821,MC,17,MC,MC,[],22,Yes,,Female,"english, spanish",Chrome,Mac,900,1440,10.311483333333332,
2749,default,block1,danny,ai,0.09,9749,confess,18,confess,C,[],22,Yes,,Female,"english, spanish",Chrome,Mac,900,1440,10.311483333333332,
2749,default,block1,grace,ai,0.09,4536,demonstrate,19,demonstrate,C,[],22,Yes,,Female,"english, spanish",Chrome,Mac,900,1440,10.311483333333332,
2749,default,block1,kids,ai,0.95,12020,MC,20,MC,MC,[],22,Yes,,Female,"english, spanish",Chrome,Mac,900,1440,10.311483333333332,
2749,default,block1,olivia,ai,0.09,7251,admit,21,admit,C,[],22,Yes,,Female,"english, spanish",Chrome,Mac,900,1440,10.311483333333332,
2749,default,block1,mary,ai,0.13,7060,be_annoyed,22,be_annoyed,C,[],22,Yes,,Female,"english, spanish",Chrome,Mac,900,1440,10.311483333333332,
2749,default,block1,emily,ai,0.25,14119,reveal,23,reveal,C,[],22,Yes,,Female,"english, spanish",Chrome,Mac,900,1440,10.311483333333332,
2749,default,block1,isabella,ai,0.13,7263,hear,24,hear,C,[],22,Yes,,Female,"english, spanish",Chrome,Mac,900,1440,10.311483333333332,
2749,default,block1,pizza,ai,0.95,9026,MC,25,MC,MC,[],22,Yes,,Female,"english, spanish",Chrome,Mac,900,1440,10.311483333333332,
2749,default,block1,tony,ai,0.14,7041,confirm,26,confirm,C,[],22,Yes,,Female,"english, spanish",Chrome,Mac,900,1440,10.311483333333332,
2749,default,block1,josie,ai,0.18,10682,say,27,say,C,[],22,Yes,,Female,"english, spanish",Chrome,Mac,900,1440,10.311483333333332,
2749,default,block1,muffins,ai,0.94,9239,MC,28,MC,MC,[],22,Yes,,Female,"english, spanish",Chrome,Mac,900,1440,10.311483333333332,
2749,default,block1,owen,ai,0.08,6038,inform,29,inform,C,[],22,Yes,,Female,"english, spanish",Chrome,Mac,900,1440,10.311483333333332,
2749,default,block1,jayden,ai,0.1,4347,prove,30,prove,C,[],22,Yes,,Female,"english, spanish",Chrome,Mac,900,1440,10.311483333333332,
2749,default,block2,kids,projective,0.96,17805,MC,32,MC,MC,[],22,Yes,,Female,"english, spanish",Chrome,Mac,900,1440,10.311483333333332,
2749,default,block2,grace,projective,0.11,15733,demonstrate,33,demonstrate,C,[],22,Yes,,Female,"english, spanish",Chrome,Mac,900,1440,10.311483333333332,
2749,default,block2,hat,projective,0.98,5768,MC,34,MC,MC,[],22,Yes,,Female,"english, spanish",Chrome,Mac,900,1440,10.311483333333332,
2749,default,block2,ballet,projective,0.97,3721,MC,35,MC,MC,[],22,Yes,,Female,"english, spanish",Chrome,Mac,900,1440,10.311483333333332,
2749,default,block2,garage,projective,0.96,6621,MC,36,MC,MC,[],22,Yes,,Female,"english, spanish",Chrome,Mac,900,1440,10.311483333333332,
2749,default,block2,zoe,projective,0.07,7596,establish,37,establish,C,[],22,Yes,,Female,"english, spanish",Chrome,Mac,900,1440,10.311483333333332,
2749,default,block2,isabella,projective,0.07,11072,hear,38,hear,C,[],22,Yes,,Female,"english, spanish",Chrome,Mac,900,1440,10.311483333333332,
2749,default,block2,jackson,projective,0.09,3399,announce,39,announce,C,[],22,Yes,,Female,"english, spanish",Chrome,Mac,900,1440,10.311483333333332,
2749,default,block2,josie,projective,0.1,3958,say,40,say,C,[],22,Yes,,Female,"english, spanish",Chrome,Mac,900,1440,10.311483333333332,
2749,default,block2,frank,projective,0.05,8314,be_right,41,be_right,C,[],22,Yes,,Female,"english, spanish",Chrome,Mac,900,1440,10.311483333333332,
2749,default,block2,charley,projective,0.1,3260,pretend,42,pretend,C,[],22,Yes,,Female,"english, spanish",Chrome,Mac,900,1440,10.311483333333332,
2749,default,block2,sophia,projective,0.08,5254,think,43,think,C,[],22,Yes,,Female,"english, spanish",Chrome,Mac,900,1440,10.311483333333332,
2749,default,block2,josh,projective,0.66,16539,know,44,know,C,[],22,Yes,,Female,"english, spanish",Chrome,Mac,900,1440,10.311483333333332,
2749,default,block2,muffins,projective,0.92,5409,MC,45,MC,MC,[],22,Yes,,Female,"english, spanish",Chrome,Mac,900,1440,10.311483333333332,
2749,default,block2,emily,projective,0.34,14645,reveal,46,reveal,C,[],22,Yes,,Female,"english, spanish",Chrome,Mac,900,1440,10.311483333333332,
2749,default,block2,olivia,projective,0.68,7281,admit,47,admit,C,[],22,Yes,,Female,"english, spanish",Chrome,Mac,900,1440,10.311483333333332,
2749,default,block2,owen,projective,0.61,8069,inform,48,inform,C,[],22,Yes,,Female,"english, spanish",Chrome,Mac,900,1440,10.311483333333332,
2749,default,block2,pizza,projective,0.98,5448,MC,49,MC,MC,[],22,Yes,,Female,"english, spanish",Chrome,Mac,900,1440,10.311483333333332,
2749,default,block2,mary,projective,0.85,6544,be_annoyed,50,be_annoyed,C,[],22,Yes,,Female,"english, spanish",Chrome,Mac,900,1440,10.311483333333332,
2749,default,block2,mia,projective,0.63,5226,acknowledge,51,acknowledge,C,[],22,Yes,,Female,"english, spanish",Chrome,Mac,900,1440,10.311483333333332,
2749,default,block2,jayden,projective,0.17,10758,prove,52,prove,C,[],22,Yes,,Female,"english, spanish",Chrome,Mac,900,1440,10.311483333333332,
2749,default,block2,emma,projective,0.14,6778,suggest,53,suggest,C,[],22,Yes,,Female,"english, spanish",Chrome,Mac,900,1440,10.311483333333332,
2749,default,block2,julian,projective,0.74,10264,see,54,see,C,[],22,Yes,,Female,"english, spanish",Chrome,Mac,900,1440,10.311483333333332,
2749,default,block2,jon,projective,0.87,6416,discover,55,discover,C,[],22,Yes,,Female,"english, spanish",Chrome,Mac,900,1440,10.311483333333332,
2749,default,block2,tony,projective,0.12,6243,confirm,56,confirm,C,[],22,Yes,,Female,"english, spanish",Chrome,Mac,900,1440,10.311483333333332,
2749,default,block2,danny,projective,0.77,7801,confess,57,confess,C,[],22,Yes,,Female,"english, spanish",Chrome,Mac,900,1440,10.311483333333332,
2614,default,block1,frank,projective,0.77,9882,say,5,say,C,[],36,Yes,None of these statements sounded right the way I have learned English in america,Female,"English,",Chrome,Linux,915,412,17.002866666666666,
2614,default,block1,emma,projective,0.94,11047,hear,6,hear,C,[],36,Yes,None of these statements sounded right the way I have learned English in america,Female,"English,",Chrome,Linux,915,412,17.002866666666666,
2614,default,block1,tony,projective,0.27,18548,establish,7,establish,C,[],36,Yes,None of these statements sounded right the way I have learned English in america,Female,"English,",Chrome,Linux,915,412,17.002866666666666,
2614,default,block1,jayden,projective,0.96,9214,see,8,see,C,[],36,Yes,None of these statements sounded right the way I have learned English in america,Female,"English,",Chrome,Linux,915,412,17.002866666666666,
2614,default,block1,josie,projective,0.99,6073,be_annoyed,9,be_annoyed,C,[],36,Yes,None of these statements sounded right the way I have learned English in america,Female,"English,",Chrome,Linux,915,412,17.002866666666666,
2614,default,block1,julian,projective,0.84,16977,prove,10,prove,C,[],36,Yes,None of these statements sounded right the way I have learned English in america,Female,"English,",Chrome,Linux,915,412,17.002866666666666,
2614,default,block1,josh,projective,0.64,15054,think,11,think,C,[],36,Yes,None of these statements sounded right the way I have learned English in america,Female,"English,",Chrome,Linux,915,412,17.002866666666666,
2614,default,block1,emily,projective,0.16,81907,suggest,12,suggest,C,[],36,Yes,None of these statements sounded right the way I have learned English in america,Female,"English,",Chrome,Linux,915,412,17.002866666666666,
2614,default,block1,olivia,projective,0.8,12200,discover,13,discover,C,[],36,Yes,None of these statements sounded right the way I have learned English in america,Female,"English,",Chrome,Linux,915,412,17.002866666666666,
2614,default,block1,zoe,projective,0.13,8012,confirm,14,confirm,C,[],36,Yes,None of these statements sounded right the way I have learned English in america,Female,"English,",Chrome,Linux,915,412,17.002866666666666,
2614,default,block1,ballet,projective,0.98,7050,MC,15,MC,MC,[],36,Yes,None of these statements sounded right the way I have learned English in america,Female,"English,",Chrome,Linux,915,412,17.002866666666666,
2614,default,block1,mary,projective,0.4,9373,admit,16,admit,C,[],36,Yes,None of these statements sounded right the way I have learned English in america,Female,"English,",Chrome,Linux,915,412,17.002866666666666,
2614,default,block1,muffins,projective,0.99,15764,MC,17,MC,MC,[],36,Yes,None of these statements sounded right the way I have learned English in america,Female,"English,",Chrome,Linux,915,412,17.002866666666666,
2614,default,block1,owen,projective,0.03,16233,pretend,18,pretend,C,[],36,Yes,None of these statements sounded right the way I have learned English in america,Female,"English,",Chrome,Linux,915,412,17.002866666666666,
2614,default,block1,garage,projective,0.96,8119,MC,19,MC,MC,[],36,Yes,None of these statements sounded right the way I have learned English in america,Female,"English,",Chrome,Linux,915,412,17.002866666666666,
2614,default,block1,charley,projective,0.61,6959,reveal,20,reveal,C,[],36,Yes,None of these statements sounded right the way I have learned English in america,Female,"English,",Chrome,Linux,915,412,17.002866666666666,
2614,default,block1,jackson,projective,0.43,98502,inform,21,inform,C,[],36,Yes,None of these statements sounded right the way I have learned English in america,Female,"English,",Chrome,Linux,915,412,17.002866666666666,
2614,default,block1,pizza,projective,0.98,6979,MC,22,MC,MC,[],36,Yes,None of these statements sounded right the way I have learned English in america,Female,"English,",Chrome,Linux,915,412,17.002866666666666,
2614,default,block1,mia,projective,0.3,17357,acknowledge,23,acknowledge,C,[],36,Yes,None of these statements sounded right the way I have learned English in america,Female,"English,",Chrome,Linux,915,412,17.002866666666666,
2614,default,block1,jon,projective,0.45,9729,confess,24,confess,C,[],36,Yes,None of these statements sounded right the way I have learned English in america,Female,"English,",Chrome,Linux,915,412,17.002866666666666,
2614,default,block1,sophia,projective,0,11889,be_right,25,be_right,C,[],36,Yes,None of these statements sounded right the way I have learned English in america,Female,"English,",Chrome,Linux,915,412,17.002866666666666,
2614,default,block1,danny,projective,0.6,7698,announce,26,announce,C,[],36,Yes,None of these statements sounded right the way I have learned English in america,Female,"English,",Chrome,Linux,915,412,17.002866666666666,
2614,default,block1,hat,projective,0.98,10728,MC,27,MC,MC,[],36,Yes,None of these statements sounded right the way I have learned English in america,Female,"English,",Chrome,Linux,915,412,17.002866666666666,
2614,default,block1,grace,projective,0.17,7719,demonstrate,28,demonstrate,C,[],36,Yes,None of these statements sounded right the way I have learned English in america,Female,"English,",Chrome,Linux,915,412,17.002866666666666,
2614,default,block1,isabella,projective,0.81,9710,know,29,know,C,[],36,Yes,None of these statements sounded right the way I have learned English in america,Female,"English,",Chrome,Linux,915,412,17.002866666666666,
2614,default,block1,kids,projective,0.9,25633,MC,30,MC,MC,[],36,Yes,None of these statements sounded right the way I have learned English in america,Female,"English,",Chrome,Linux,915,412,17.002866666666666,
2614,default,block2,danny,ai,0.01,29609,announce,32,announce,C,[],36,Yes,None of these statements sounded right the way I have learned English in america,Female,"English,",Chrome,Linux,915,412,17.002866666666666,
2614,default,block2,emma,ai,0.01,28839,hear,33,hear,C,[],36,Yes,None of these statements sounded right the way I have learned English in america,Female,"English,",Chrome,Linux,915,412,17.002866666666666,
2614,default,block2,emily,ai,0.01,8140,suggest,34,suggest,C,[],36,Yes,None of these statements sounded right the way I have learned English in america,Female,"English,",Chrome,Linux,915,412,17.002866666666666,
2614,default,block2,garage,ai,0.54,10906,MC,35,MC,MC,[],36,Yes,None of these statements sounded right the way I have learned English in america,Female,"English,",Chrome,Linux,915,412,17.002866666666666,
2614,default,block2,hat,ai,0.67,11839,MC,36,MC,MC,[],36,Yes,None of these statements sounded right the way I have learned English in america,Female,"English,",Chrome,Linux,915,412,17.002866666666666,
2614,default,block2,mia,ai,0.01,7411,acknowledge,37,acknowledge,C,[],36,Yes,None of these statements sounded right the way I have learned English in america,Female,"English,",Chrome,Linux,915,412,17.002866666666666,
2614,default,block2,jon,ai,0.07,11122,confess,38,confess,C,[],36,Yes,None of these statements sounded right the way I have learned English in america,Female,"English,",Chrome,Linux,915,412,17.002866666666666,
2614,default,block2,charley,ai,0.05,7352,reveal,39,reveal,C,[],36,Yes,None of these statements sounded right the way I have learned English in america,Female,"English,",Chrome,Linux,915,412,17.002866666666666,
2614,default,block2,kids,ai,0.27,10228,MC,40,MC,MC,[],36,Yes,None of these statements sounded right the way I have learned English in america,Female,"English,",Chrome,Linux,915,412,17.002866666666666,
2614,default,block2,jackson,ai,0.09,10888,inform,41,inform,C,[],36,Yes,None of these statements sounded right the way I have learned English in america,Female,"English,",Chrome,Linux,915,412,17.002866666666666,
2614,default,block2,ballet,ai,0.36,8285,MC,42,MC,MC,[],36,Yes,None of these statements sounded right the way I have learned English in america,Female,"English,",Chrome,Linux,915,412,17.002866666666666,
2614,default,block2,grace,ai,0.09,5937,demonstrate,43,demonstrate,C,[],36,Yes,None of these statements sounded right the way I have learned English in america,Female,"English,",Chrome,Linux,915,412,17.002866666666666,
2614,default,block2,olivia,ai,0.06,5292,discover,44,discover,C,[],36,Yes,None of these statements sounded right the way I have learned English in america,Female,"English,",Chrome,Linux,915,412,17.002866666666666,
2614,default,block2,muffins,ai,0.57,7307,MC,45,MC,MC,[],36,Yes,None of these statements sounded right the way I have learned English in america,Female,"English,",Chrome,Linux,915,412,17.002866666666666,
2614,default,block2,julian,ai,0.08,42446,prove,46,prove,C,[],36,Yes,None of these statements sounded right the way I have learned English in america,Female,"English,",Chrome,Linux,915,412,17.002866666666666,
2614,default,block2,josh,ai,0.18,11638,think,47,think,C,[],36,Yes,None of these statements sounded right the way I have learned English in america,Female,"English,",Chrome,Linux,915,412,17.002866666666666,
2614,default,block2,jayden,ai,0.11,15740,see,48,see,C,[],36,Yes,None of these statements sounded right the way I have learned English in america,Female,"English,",Chrome,Linux,915,412,17.002866666666666,
2614,default,block2,mary,ai,0.07,5858,admit,49,admit,C,[],36,Yes,None of these statements sounded right the way I have learned English in america,Female,"English,",Chrome,Linux,915,412,17.002866666666666,
2614,default,block2,owen,ai,0.3,18173,pretend,50,pretend,C,[],36,Yes,None of these statements sounded right the way I have learned English in america,Female,"English,",Chrome,Linux,915,412,17.002866666666666,
2614,default,block2,zoe,ai,0.13,13611,confirm,51,confirm,C,[],36,Yes,None of these statements sounded right the way I have learned English in america,Female,"English,",Chrome,Linux,915,412,17.002866666666666,
2614,default,block2,josie,ai,0.29,11354,be_annoyed,52,be_annoyed,C,[],36,Yes,None of these statements sounded right the way I have learned English in america,Female,"English,",Chrome,Linux,915,412,17.002866666666666,
2614,default,block2,isabella,ai,0.14,32988,know,53,know,C,[],36,Yes,None of these statements sounded right the way I have learned English in america,Female,"English,",Chrome,Linux,915,412,17.002866666666666,
2614,default,block2,tony,ai,0.1,20226,establish,54,establish,C,[],36,Yes,None of these statements sounded right the way I have learned English in america,Female,"English,",Chrome,Linux,915,412,17.002866666666666,
2614,default,block2,pizza,ai,0.33,9548,MC,55,MC,MC,[],36,Yes,None of these statements sounded right the way I have learned English in america,Female,"English,",Chrome,Linux,915,412,17.002866666666666,
2614,default,block2,sophia,ai,0.1,9715,be_right,56,be_right,C,[],36,Yes,None of these statements sounded right the way I have learned English in america,Female,"English,",Chrome,Linux,915,412,17.002866666666666,
2614,default,block2,frank,ai,0.14,10613,say,57,say,C,[],36,Yes,None of these statements sounded right the way I have learned English in america,Female,"English,",Chrome,Linux,915,412,17.002866666666666,
2670,default,block1,charley,projective,0,15294,think,5,think,C,[],23,Yes,,Female,English,Safari,Mac,900,1440,14.1856,
2670,default,block1,ballet,projective,0.76,100438,MC,6,MC,MC,[],23,Yes,,Female,English,Safari,Mac,900,1440,14.1856,
2670,default,block1,owen,projective,0.33,105645,establish,7,establish,C,[],23,Yes,,Female,English,Safari,Mac,900,1440,14.1856,
2670,default,block1,olivia,projective,0.23,5899,suggest,8,suggest,C,[],23,Yes,,Female,English,Safari,Mac,900,1440,14.1856,
2670,default,block1,mia,projective,0.08,10849,know,9,know,C,[],23,Yes,,Female,English,Safari,Mac,900,1440,14.1856,
2670,default,block1,isabella,projective,0.29,11149,say,10,say,C,[],23,Yes,,Female,English,Safari,Mac,900,1440,14.1856,
2670,default,block1,pizza,projective,0.9,31890,MC,11,MC,MC,[],23,Yes,,Female,English,Safari,Mac,900,1440,14.1856,
2670,default,block1,emily,projective,0.16,10115,be_right,12,be_right,C,[],23,Yes,,Female,English,Safari,Mac,900,1440,14.1856,
2670,default,block1,danny,projective,0.72,29875,inform,13,inform,C,[],23,Yes,,Female,English,Safari,Mac,900,1440,14.1856,
2670,default,block1,zoe,projective,0.66,16954,reveal,14,reveal,C,[],23,Yes,,Female,English,Safari,Mac,900,1440,14.1856,
2670,default,block1,sophia,projective,0.76,8315,acknowledge,15,acknowledge,C,[],23,Yes,,Female,English,Safari,Mac,900,1440,14.1856,
2670,default,block1,jayden,projective,0.61,12160,confirm,16,confirm,C,[],23,Yes,,Female,English,Safari,Mac,900,1440,14.1856,
2670,default,block1,josie,projective,0.64,14765,demonstrate,17,demonstrate,C,[],23,Yes,,Female,English,Safari,Mac,900,1440,14.1856,
2670,default,block1,kids,projective,0.9,21939,MC,18,MC,MC,[],23,Yes,,Female,English,Safari,Mac,900,1440,14.1856,
2670,default,block1,jon,projective,0.7,8121,discover,19,discover,C,[],23,Yes,,Female,English,Safari,Mac,900,1440,14.1856,
2670,default,block1,grace,projective,0.69,15315,pretend,20,pretend,C,[],23,Yes,,Female,English,Safari,Mac,900,1440,14.1856,
2670,default,block1,muffins,projective,0.94,7858,MC,21,MC,MC,[],23,Yes,,Female,English,Safari,Mac,900,1440,14.1856,
2670,default,block1,garage,projective,0.96,6094,MC,22,MC,MC,[],23,Yes,,Female,English,Safari,Mac,900,1440,14.1856,
2670,default,block1,frank,projective,0.77,7256,see,23,see,C,[],23,Yes,,Female,English,Safari,Mac,900,1440,14.1856,
2670,default,block1,julian,projective,0.74,6700,admit,24,admit,C,[],23,Yes,,Female,English,Safari,Mac,900,1440,14.1856,
2670,default,block1,hat,projective,0.99,6960,MC,25,MC,MC,[],23,Yes,,Female,English,Safari,Mac,900,1440,14.1856,
2670,default,block1,mary,projective,0.63,6050,prove,26,prove,C,[],23,Yes,,Female,English,Safari,Mac,900,1440,14.1856,
2670,default,block1,emma,projective,0.63,8732,confess,27,confess,C,[],23,Yes,,Female,English,Safari,Mac,900,1440,14.1856,
2670,default,block1,jackson,projective,0.76,8323,announce,28,announce,C,[],23,Yes,,Female,English,Safari,Mac,900,1440,14.1856,
2670,default,block1,tony,projective,0.82,5680,hear,29,hear,C,[],23,Yes,,Female,English,Safari,Mac,900,1440,14.1856,
2670,default,block1,josh,projective,0.7,10639,be_annoyed,30,be_annoyed,C,[],23,Yes,,Female,English,Safari,Mac,900,1440,14.1856,
2670,default,block2,danny,ai,0.62,29329,inform,32,inform,C,[],23,Yes,,Female,English,Safari,Mac,900,1440,14.1856,
2670,default,block2,garage,ai,0.11,8162,MC,33,MC,MC,[],23,Yes,,Female,English,Safari,Mac,900,1440,14.1856,
2670,default,block2,josie,ai,0.7,8087,demonstrate,34,demonstrate,C,[],23,Yes,,Female,English,Safari,Mac,900,1440,14.1856,
2670,default,block2,jayden,ai,0.71,49308,confirm,35,confirm,C,[],23,Yes,,Female,English,Safari,Mac,900,1440,14.1856,
2670,default,block2,frank,ai,0.26,10025,see,36,see,C,[],23,Yes,,Female,English,Safari,Mac,900,1440,14.1856,
2670,default,block2,olivia,ai,0.28,11705,suggest,37,suggest,C,[],23,Yes,,Female,English,Safari,Mac,900,1440,14.1856,
2670,default,block2,mary,ai,0.7,6377,prove,38,prove,C,[],23,Yes,,Female,English,Safari,Mac,900,1440,14.1856,
2670,default,block2,owen,ai,0.12,9635,establish,39,establish,C,[],23,Yes,,Female,English,Safari,Mac,900,1440,14.1856,
2670,default,block2,muffins,ai,0.29,9382,MC,40,MC,MC,[],23,Yes,,Female,English,Safari,Mac,900,1440,14.1856,
2670,default,block2,ballet,ai,0.56,17195,MC,41,MC,MC,[],23,Yes,,Female,English,Safari,Mac,900,1440,14.1856,
2670,default,block2,tony,ai,0.17,6040,hear,42,hear,C,[],23,Yes,,Female,English,Safari,Mac,900,1440,14.1856,
2670,default,block2,pizza,ai,0.3,8161,MC,43,MC,MC,[],23,Yes,,Female,English,Safari,Mac,900,1440,14.1856,
2670,default,block2,emma,ai,0.19,24057,confess,44,confess,C,[],23,Yes,,Female,English,Safari,Mac,900,1440,14.1856,
2670,default,block2,hat,ai,0.3,4955,MC,45,MC,MC,[],23,Yes,,Female,English,Safari,Mac,900,1440,14.1856,
2670,default,block2,jon,ai,0.2,5711,discover,46,discover,C,[],23,Yes,,Female,English,Safari,Mac,900,1440,14.1856,
2670,default,block2,josh,ai,0.11,9433,be_annoyed,47,be_annoyed,C,[],23,Yes,,Female,English,Safari,Mac,900,1440,14.1856,
2670,default,block2,jackson,ai,0.14,5741,announce,48,announce,C,[],23,Yes,,Female,English,Safari,Mac,900,1440,14.1856,
2670,default,block2,grace,ai,0.13,6313,pretend,49,pretend,C,[],23,Yes,,Female,English,Safari,Mac,900,1440,14.1856,
2670,default,block2,isabella,ai,0.08,7283,say,50,say,C,[],23,Yes,,Female,English,Safari,Mac,900,1440,14.1856,
2670,default,block2,mia,ai,0.08,6230,know,51,know,C,[],23,Yes,,Female,English,Safari,Mac,900,1440,14.1856,
2670,default,block2,kids,ai,0.23,6293,MC,52,MC,MC,[],23,Yes,,Female,English,Safari,Mac,900,1440,14.1856,
2670,default,block2,sophia,ai,0.09,4096,acknowledge,53,acknowledge,C,[],23,Yes,,Female,English,Safari,Mac,900,1440,14.1856,
2670,default,block2,zoe,ai,0.12,6782,reveal,54,reveal,C,[],23,Yes,,Female,English,Safari,Mac,900,1440,14.1856,
2670,default,block2,emily,ai,0.12,10198,be_right,55,be_right,C,[],23,Yes,,Female,English,Safari,Mac,900,1440,14.1856,
2670,default,block2,julian,ai,0.05,27719,admit,56,admit,C,[],23,Yes,,Female,English,Safari,Mac,900,1440,14.1856,
2670,default,block2,charley,ai,0.13,12588,think,57,think,C,[],23,Yes,,Female,English,Safari,Mac,900,1440,14.1856,
2686,default,block1,jackson,projective,0.18,29294,discover,5,discover,C,[],36,Yes,"The wording was confusing, although I guess that was probably the point",Female,Englis,Chrome,Mac,800,1280,8.41685,
2686,default,block1,kids,projective,0.98,9161,MC,6,MC,MC,[],36,Yes,"The wording was confusing, although I guess that was probably the point",Female,Englis,Chrome,Mac,800,1280,8.41685,
2686,default,block1,garage,projective,0.98,7522,MC,7,MC,MC,[],36,Yes,"The wording was confusing, although I guess that was probably the point",Female,Englis,Chrome,Mac,800,1280,8.41685,
2686,default,block1,charley,projective,0.15,13274,establish,8,establish,C,[],36,Yes,"The wording was confusing, although I guess that was probably the point",Female,Englis,Chrome,Mac,800,1280,8.41685,
2686,default,block1,emily,projective,0.23,8665,confirm,9,confirm,C,[],36,Yes,"The wording was confusing, although I guess that was probably the point",Female,Englis,Chrome,Mac,800,1280,8.41685,
2686,default,block1,owen,projective,0.26,11319,confess,10,confess,C,[],36,Yes,"The wording was confusing, although I guess that was probably the point",Female,Englis,Chrome,Mac,800,1280,8.41685,
2686,default,block1,frank,projective,0.18,7203,announce,11,announce,C,[],36,Yes,"The wording was confusing, although I guess that was probably the point",Female,Englis,Chrome,Mac,800,1280,8.41685,
2686,default,block1,olivia,projective,0.72,12950,see,12,see,C,[],36,Yes,"The wording was confusing, although I guess that was probably the point",Female,Englis,Chrome,Mac,800,1280,8.41685,
2686,default,block1,hat,projective,0.98,6195,MC,13,MC,MC,[],36,Yes,"The wording was confusing, although I guess that was probably the point",Female,Englis,Chrome,Mac,800,1280,8.41685,
2686,default,block1,grace,projective,0.2,6911,admit,14,admit,C,[],36,Yes,"The wording was confusing, although I guess that was probably the point",Female,Englis,Chrome,Mac,800,1280,8.41685,
2686,default,block1,tony,projective,0.69,5727,reveal,15,reveal,C,[],36,Yes,"The wording was confusing, although I guess that was probably the point",Female,Englis,Chrome,Mac,800,1280,8.41685,
2686,default,block1,josie,projective,0.63,8025,acknowledge,16,acknowledge,C,[],36,Yes,"The wording was confusing, although I guess that was probably the point",Female,Englis,Chrome,Mac,800,1280,8.41685,
2686,default,block1,pizza,projective,0.99,4881,MC,17,MC,MC,[],36,Yes,"The wording was confusing, although I guess that was probably the point",Female,Englis,Chrome,Mac,800,1280,8.41685,
2686,default,block1,ballet,projective,1,4269,MC,18,MC,MC,[],36,Yes,"The wording was confusing, although I guess that was probably the point",Female,Englis,Chrome,Mac,800,1280,8.41685,
2686,default,block1,jon,projective,0.78,7240,know,19,know,C,[],36,Yes,"The wording was confusing, although I guess that was probably the point",Female,Englis,Chrome,Mac,800,1280,8.41685,
2686,default,block1,mia,projective,0.32,5911,suggest,20,suggest,C,[],36,Yes,"The wording was confusing, although I guess that was probably the point",Female,Englis,Chrome,Mac,800,1280,8.41685,
2686,default,block1,isabella,projective,0.27,9915,demonstrate,21,demonstrate,C,[],36,Yes,"The wording was confusing, although I guess that was probably the point",Female,Englis,Chrome,Mac,800,1280,8.41685,
2686,default,block1,danny,projective,0.59,6923,prove,22,prove,C,[],36,Yes,"The wording was confusing, although I guess that was probably the point",Female,Englis,Chrome,Mac,800,1280,8.41685,
2686,default,block1,emma,projective,0.77,15476,inform,23,inform,C,[],36,Yes,"The wording was confusing, although I guess that was probably the point",Female,Englis,Chrome,Mac,800,1280,8.41685,
2686,default,block1,zoe,projective,0.27,7142,think,24,think,C,[],36,Yes,"The wording was confusing, although I guess that was probably the point",Female,Englis,Chrome,Mac,800,1280,8.41685,
2686,default,block1,jayden,projective,0.86,9916,be_annoyed,25,be_annoyed,C,[],36,Yes,"The wording was confusing, although I guess that was probably the point",Female,Englis,Chrome,Mac,800,1280,8.41685,
2686,default,block1,muffins,projective,0.99,6038,MC,26,MC,MC,[],36,Yes,"The wording was confusing, although I guess that was probably the point",Female,Englis,Chrome,Mac,800,1280,8.41685,
2686,default,block1,sophia,projective,0.84,4982,hear,27,hear,C,[],36,Yes,"The wording was confusing, although I guess that was probably the point",Female,Englis,Chrome,Mac,800,1280,8.41685,
2686,default,block1,julian,projective,0.03,15015,be_right,28,be_right,C,[],36,Yes,"The wording was confusing, although I guess that was probably the point",Female,Englis,Chrome,Mac,800,1280,8.41685,
2686,default,block1,josh,projective,0.12,7076,pretend,29,pretend,C,[],36,Yes,"The wording was confusing, although I guess that was probably the point",Female,Englis,Chrome,Mac,800,1280,8.41685,
2686,default,block1,mary,projective,0.64,5073,say,30,say,C,[],36,Yes,"The wording was confusing, although I guess that was probably the point",Female,Englis,Chrome,Mac,800,1280,8.41685,
2686,default,block2,ballet,ai,0.97,17597,MC,32,MC,MC,[],36,Yes,"The wording was confusing, although I guess that was probably the point",Female,Englis,Chrome,Mac,800,1280,8.41685,
2686,default,block2,sophia,ai,0.03,5722,hear,33,hear,C,[],36,Yes,"The wording was confusing, although I guess that was probably the point",Female,Englis,Chrome,Mac,800,1280,8.41685,
2686,default,block2,zoe,ai,0.02,7685,think,34,think,C,[],36,Yes,"The wording was confusing, although I guess that was probably the point",Female,Englis,Chrome,Mac,800,1280,8.41685,
2686,default,block2,josh,ai,0.01,10522,pretend,35,pretend,C,[],36,Yes,"The wording was confusing, although I guess that was probably the point",Female,Englis,Chrome,Mac,800,1280,8.41685,
2686,default,block2,julian,ai,0.01,7075,be_right,36,be_right,C,[],36,Yes,"The wording was confusing, although I guess that was probably the point",Female,Englis,Chrome,Mac,800,1280,8.41685,
2686,default,block2,grace,ai,0.01,5762,admit,37,admit,C,[],36,Yes,"The wording was confusing, although I guess that was probably the point",Female,Englis,Chrome,Mac,800,1280,8.41685,
2686,default,block2,garage,ai,0.27,11945,MC,38,MC,MC,[],36,Yes,"The wording was confusing, although I guess that was probably the point",Female,Englis,Chrome,Mac,800,1280,8.41685,
2686,default,block2,emma,ai,0.02,7248,inform,39,inform,C,[],36,Yes,"The wording was confusing, although I guess that was probably the point",Female,Englis,Chrome,Mac,800,1280,8.41685,
2686,default,block2,muffins,ai,0.47,7515,MC,40,MC,MC,[],36,Yes,"The wording was confusing, although I guess that was probably the point",Female,Englis,Chrome,Mac,800,1280,8.41685,
2686,default,block2,danny,ai,0.01,5233,prove,41,prove,C,[],36,Yes,"The wording was confusing, although I guess that was probably the point",Female,Englis,Chrome,Mac,800,1280,8.41685,
2686,default,block2,mary,ai,0.01,5274,say,42,say,C,[],36,Yes,"The wording was confusing, although I guess that was probably the point",Female,Englis,Chrome,Mac,800,1280,8.41685,
2686,default,block2,josie,ai,0.01,5373,acknowledge,43,acknowledge,C,[],36,Yes,"The wording was confusing, although I guess that was probably the point",Female,Englis,Chrome,Mac,800,1280,8.41685,
2686,default,block2,tony,ai,0.01,6279,reveal,44,reveal,C,[],36,Yes,"The wording was confusing, although I guess that was probably the point",Female,Englis,Chrome,Mac,800,1280,8.41685,
2686,default,block2,isabella,ai,0,6351,demonstrate,45,demonstrate,C,[],36,Yes,"The wording was confusing, although I guess that was probably the point",Female,Englis,Chrome,Mac,800,1280,8.41685,
2686,default,block2,mia,ai,0.02,4770,suggest,46,suggest,C,[],36,Yes,"The wording was confusing, although I guess that was probably the point",Female,Englis,Chrome,Mac,800,1280,8.41685,
2686,default,block2,frank,ai,0.02,4088,announce,47,announce,C,[],36,Yes,"The wording was confusing, although I guess that was probably the point",Female,Englis,Chrome,Mac,800,1280,8.41685,
2686,default,block2,jon,ai,0.01,5197,know,48,know,C,[],36,Yes,"The wording was confusing, although I guess that was probably the point",Female,Englis,Chrome,Mac,800,1280,8.41685,
2686,default,block2,jayden,ai,0,6772,be_annoyed,49,be_annoyed,C,[],36,Yes,"The wording was confusing, although I guess that was probably the point",Female,Englis,Chrome,Mac,800,1280,8.41685,
2686,default,block2,hat,ai,0.62,9271,MC,50,MC,MC,[],36,Yes,"The wording was confusing, although I guess that was probably the point",Female,Englis,Chrome,Mac,800,1280,8.41685,
2686,default,block2,olivia,ai,0.02,5378,see,51,see,C,[],36,Yes,"The wording was confusing, although I guess that was probably the point",Female,Englis,Chrome,Mac,800,1280,8.41685,
2686,default,block2,kids,ai,0.37,8351,MC,52,MC,MC,[],36,Yes,"The wording was confusing, although I guess that was probably the point",Female,Englis,Chrome,Mac,800,1280,8.41685,
2686,default,block2,charley,ai,0.01,4465,establish,53,establish,C,[],36,Yes,"The wording was confusing, although I guess that was probably the point",Female,Englis,Chrome,Mac,800,1280,8.41685,
2686,default,block2,emily,ai,0,4088,confirm,54,confirm,C,[],36,Yes,"The wording was confusing, although I guess that was probably the point",Female,Englis,Chrome,Mac,800,1280,8.41685,
2686,default,block2,pizza,ai,0.54,6956,MC,55,MC,MC,[],36,Yes,"The wording was confusing, although I guess that was probably the point",Female,Englis,Chrome,Mac,800,1280,8.41685,
2686,default,block2,owen,ai,0,4905,confess,56,confess,C,[],36,Yes,"The wording was confusing, although I guess that was probably the point",Female,Englis,Chrome,Mac,800,1280,8.41685,
2686,default,block2,jackson,ai,0.01,3921,discover,57,discover,C,[],36,Yes,"The wording was confusing, although I guess that was probably the point",Female,Englis,Chrome,Mac,800,1280,8.41685,
2710,default,block1,frank,ai,0.04,12226,announce,5,announce,C,[],24,Yes,,Male,English,Chrome,Mac,900,1440,7.9466,
2710,default,block1,ballet,ai,0.43,11541,MC,6,MC,MC,[],24,Yes,,Male,English,Chrome,Mac,900,1440,7.9466,
2710,default,block1,hat,ai,0.41,6933,MC,7,MC,MC,[],24,Yes,,Male,English,Chrome,Mac,900,1440,7.9466,
2710,default,block1,muffins,ai,0.51,8959,MC,8,MC,MC,[],24,Yes,,Male,English,Chrome,Mac,900,1440,7.9466,
2710,default,block1,josie,ai,0.01,7493,be_right,9,be_right,C,[],24,Yes,,Male,English,Chrome,Mac,900,1440,7.9466,
2710,default,block1,jayden,ai,0.02,8627,confess,10,confess,C,[],24,Yes,,Male,English,Chrome,Mac,900,1440,7.9466,
2710,default,block1,jon,ai,0.02,6659,demonstrate,11,demonstrate,C,[],24,Yes,,Male,English,Chrome,Mac,900,1440,7.9466,
2710,default,block1,isabella,ai,0.05,7197,see,12,see,C,[],24,Yes,,Male,English,Chrome,Mac,900,1440,7.9466,
2710,default,block1,garage,ai,0.35,9149,MC,13,MC,MC,[],24,Yes,,Male,English,Chrome,Mac,900,1440,7.9466,
2710,default,block1,mia,ai,0.03,8353,suggest,14,suggest,C,[],24,Yes,,Male,English,Chrome,Mac,900,1440,7.9466,
2710,default,block1,owen,ai,0,13177,pretend,15,pretend,C,[],24,Yes,,Male,English,Chrome,Mac,900,1440,7.9466,
2710,default,block1,sophia,ai,0.01,6448,hear,16,hear,C,[],24,Yes,,Male,English,Chrome,Mac,900,1440,7.9466,
2710,default,block1,josh,ai,0.35,6956,be_annoyed,17,be_annoyed,C,[],24,Yes,,Male,English,Chrome,Mac,900,1440,7.9466,
2710,default,block1,kids,ai,0.66,8879,MC,18,MC,MC,[],24,Yes,,Male,English,Chrome,Mac,900,1440,7.9466,
2710,default,block1,olivia,ai,0.07,4939,admit,19,admit,C,[],24,Yes,,Male,English,Chrome,Mac,900,1440,7.9466,
2710,default,block1,mary,ai,0.03,14083,know,20,know,C,[],24,Yes,,Male,English,Chrome,Mac,900,1440,7.9466,
2710,default,block1,emma,ai,0.23,5950,acknowledge,21,acknowledge,C,[],24,Yes,,Male,English,Chrome,Mac,900,1440,7.9466,
2710,default,block1,emily,ai,0.06,9046,reveal,22,reveal,C,[],24,Yes,,Male,English,Chrome,Mac,900,1440,7.9466,
2710,default,block1,jackson,ai,0.05,6121,confirm,23,confirm,C,[],24,Yes,,Male,English,Chrome,Mac,900,1440,7.9466,
2710,default,block1,julian,ai,0.13,6632,think,24,think,C,[],24,Yes,,Male,English,Chrome,Mac,900,1440,7.9466,
2710,default,block1,zoe,ai,0.02,4752,prove,25,prove,C,[],24,Yes,,Male,English,Chrome,Mac,900,1440,7.9466,
2710,default,block1,tony,ai,0.03,4658,say,26,say,C,[],24,Yes,,Male,English,Chrome,Mac,900,1440,7.9466,
2710,default,block1,charley,ai,0.02,5753,inform,27,inform,C,[],24,Yes,,Male,English,Chrome,Mac,900,1440,7.9466,
2710,default,block1,grace,ai,0.03,6505,establish,28,establish,C,[],24,Yes,,Male,English,Chrome,Mac,900,1440,7.9466,
2710,default,block1,pizza,ai,0.61,5519,MC,29,MC,MC,[],24,Yes,,Male,English,Chrome,Mac,900,1440,7.9466,
2710,default,block1,danny,ai,0.06,6726,discover,30,discover,C,[],24,Yes,,Male,English,Chrome,Mac,900,1440,7.9466,
2710,default,block2,frank,projective,0.94,8798,announce,32,announce,C,[],24,Yes,,Male,English,Chrome,Mac,900,1440,7.9466,
2710,default,block2,tony,projective,0.3,7873,say,33,say,C,[],24,Yes,,Male,English,Chrome,Mac,900,1440,7.9466,
2710,default,block2,julian,projective,0.47,6939,think,34,think,C,[],24,Yes,,Male,English,Chrome,Mac,900,1440,7.9466,
2710,default,block2,jon,projective,0.76,8931,demonstrate,35,demonstrate,C,[],24,Yes,,Male,English,Chrome,Mac,900,1440,7.9466,
2710,default,block2,mia,projective,0.54,8579,suggest,36,suggest,C,[],24,Yes,,Male,English,Chrome,Mac,900,1440,7.9466,
2710,default,block2,jayden,projective,0.79,7734,confess,37,confess,C,[],24,Yes,,Male,English,Chrome,Mac,900,1440,7.9466,
2710,default,block2,garage,projective,0.98,15133,MC,38,MC,MC,[],24,Yes,,Male,English,Chrome,Mac,900,1440,7.9466,
2710,default,block2,josie,projective,0.05,11522,be_right,39,be_right,C,[],24,Yes,,Male,English,Chrome,Mac,900,1440,7.9466,
2710,default,block2,charley,projective,0.76,7857,inform,40,inform,C,[],24,Yes,,Male,English,Chrome,Mac,900,1440,7.9466,
2710,default,block2,owen,projective,0.73,13442,pretend,41,pretend,C,[],24,Yes,,Male,English,Chrome,Mac,900,1440,7.9466,
2710,default,block2,emma,projective,0.69,6411,acknowledge,42,acknowledge,C,[],24,Yes,,Male,English,Chrome,Mac,900,1440,7.9466,
2710,default,block2,emily,projective,0.77,13511,reveal,43,reveal,C,[],24,Yes,,Male,English,Chrome,Mac,900,1440,7.9466,
2710,default,block2,muffins,projective,1,7253,MC,44,MC,MC,[],24,Yes,,Male,English,Chrome,Mac,900,1440,7.9466,
2710,default,block2,danny,projective,0.86,6034,discover,45,discover,C,[],24,Yes,,Male,English,Chrome,Mac,900,1440,7.9466,
2710,default,block2,sophia,projective,0.85,3958,hear,46,hear,C,[],24,Yes,,Male,English,Chrome,Mac,900,1440,7.9466,
2710,default,block2,zoe,projective,0.74,5754,prove,47,prove,C,[],24,Yes,,Male,English,Chrome,Mac,900,1440,7.9466,
2710,default,block2,jackson,projective,0.64,29597,confirm,48,confirm,C,[],24,Yes,,Male,English,Chrome,Mac,900,1440,7.9466,
2710,default,block2,pizza,projective,0.98,3852,MC,49,MC,MC,[],24,Yes,,Male,English,Chrome,Mac,900,1440,7.9466,
2710,default,block2,kids,projective,0.95,5095,MC,50,MC,MC,[],24,Yes,,Male,English,Chrome,Mac,900,1440,7.9466,
2710,default,block2,olivia,projective,0.71,5401,admit,51,admit,C,[],24,Yes,,Male,English,Chrome,Mac,900,1440,7.9466,
2710,default,block2,grace,projective,0.68,5674,establish,52,establish,C,[],24,Yes,,Male,English,Chrome,Mac,900,1440,7.9466,
2710,default,block2,hat,projective,0.96,5192,MC,53,MC,MC,[],24,Yes,,Male,English,Chrome,Mac,900,1440,7.9466,
2710,default,block2,isabella,projective,0.49,6994,see,54,see,C,[],24,Yes,,Male,English,Chrome,Mac,900,1440,7.9466,
2710,default,block2,josh,projective,0.84,6635,be_annoyed,55,be_annoyed,C,[],24,Yes,,Male,English,Chrome,Mac,900,1440,7.9466,
2710,default,block2,mary,projective,0.9,6980,know,56,know,C,[],24,Yes,,Male,English,Chrome,Mac,900,1440,7.9466,
2710,default,block2,ballet,projective,0.88,4453,MC,57,MC,MC,[],24,Yes,,Male,English,Chrome,Mac,900,1440,7.9466,
2721,default,block1,sophia,ai,0.03,15523,suggest,5,suggest,C,[],24,Yes,,Female,English,Chrome,Mac,800,1280,10.3877,
2721,default,block1,hat,ai,0.11,10996,MC,6,MC,MC,[],24,Yes,,Female,English,Chrome,Mac,800,1280,10.3877,
2721,default,block1,jackson,ai,0.07,13768,say,7,say,C,[],24,Yes,,Female,English,Chrome,Mac,800,1280,10.3877,
2721,default,block1,olivia,ai,0.04,8648,discover,8,discover,C,[],24,Yes,,Female,English,Chrome,Mac,800,1280,10.3877,
2721,default,block1,jayden,ai,0.02,9034,confess,9,confess,C,[],24,Yes,,Female,English,Chrome,Mac,800,1280,10.3877,
2721,default,block1,tony,ai,0.04,12663,know,10,know,C,[],24,Yes,,Female,English,Chrome,Mac,800,1280,10.3877,
2721,default,block1,julian,ai,0.02,6583,confirm,11,confirm,C,[],24,Yes,,Female,English,Chrome,Mac,800,1280,10.3877,
2721,default,block1,jon,ai,0.02,9660,prove,12,prove,C,[],24,Yes,,Female,English,Chrome,Mac,800,1280,10.3877,
2721,default,block1,mia,ai,0.05,8317,be_right,13,be_right,C,[],24,Yes,,Female,English,Chrome,Mac,800,1280,10.3877,
2721,default,block1,grace,ai,0.03,7491,demonstrate,14,demonstrate,C,[],24,Yes,,Female,English,Chrome,Mac,800,1280,10.3877,
2721,default,block1,kids,ai,0.13,9659,MC,15,MC,MC,[],24,Yes,,Female,English,Chrome,Mac,800,1280,10.3877,
2721,default,block1,emily,ai,0.02,15247,admit,16,admit,C,[],24,Yes,,Female,English,Chrome,Mac,800,1280,10.3877,
2721,default,block1,pizza,ai,0.04,5302,MC,17,MC,MC,[],24,Yes,,Female,English,Chrome,Mac,800,1280,10.3877,
2721,default,block1,charley,ai,0.04,8645,reveal,18,reveal,C,[],24,Yes,,Female,English,Chrome,Mac,800,1280,10.3877,
2721,default,block1,danny,ai,0.07,14027,inform,19,inform,C,[],24,Yes,,Female,English,Chrome,Mac,800,1280,10.3877,
2721,default,block1,owen,ai,0.03,11381,acknowledge,20,acknowledge,C,[],24,Yes,,Female,English,Chrome,Mac,800,1280,10.3877,
2721,default,block1,ballet,ai,0.38,11683,MC,21,MC,MC,[],24,Yes,,Female,English,Chrome,Mac,800,1280,10.3877,
2721,default,block1,isabella,ai,0.08,6871,think,22,think,C,[],24,Yes,,Female,English,Chrome,Mac,800,1280,10.3877,
2721,default,block1,frank,ai,0,8720,hear,23,hear,C,[],24,Yes,,Female,English,Chrome,Mac,800,1280,10.3877,
2721,default,block1,muffins,ai,0.7,8512,MC,24,MC,MC,[],24,Yes,,Female,English,Chrome,Mac,800,1280,10.3877,
2721,default,block1,garage,ai,0.72,8722,MC,25,MC,MC,[],24,Yes,,Female,English,Chrome,Mac,800,1280,10.3877,
2721,default,block1,josh,ai,0.07,6420,establish,26,establish,C,[],24,Yes,,Female,English,Chrome,Mac,800,1280,10.3877,
2721,default,block1,josie,ai,0.03,8127,pretend,27,pretend,C,[],24,Yes,,Female,English,Chrome,Mac,800,1280,10.3877,
2721,default,block1,mary,ai,0.01,5474,see,28,see,C,[],24,Yes,,Female,English,Chrome,Mac,800,1280,10.3877,
2721,default,block1,emma,ai,0.01,7041,be_annoyed,29,be_annoyed,C,[],24,Yes,,Female,English,Chrome,Mac,800,1280,10.3877,
2721,default,block1,zoe,ai,0.26,12530,announce,30,announce,C,[],24,Yes,,Female,English,Chrome,Mac,800,1280,10.3877,
2721,default,block2,danny,projective,0.88,37249,inform,32,inform,C,[],24,Yes,,Female,English,Chrome,Mac,800,1280,10.3877,
2721,default,block2,charley,projective,0.03,16190,reveal,33,reveal,C,[],24,Yes,,Female,English,Chrome,Mac,800,1280,10.3877,
2721,default,block2,mary,projective,0.9,10258,see,34,see,C,[],24,Yes,,Female,English,Chrome,Mac,800,1280,10.3877,
2721,default,block2,sophia,projective,0.94,9582,suggest,35,suggest,C,[],24,Yes,,Female,English,Chrome,Mac,800,1280,10.3877,
2721,default,block2,ballet,projective,0.95,7654,MC,36,MC,MC,[],24,Yes,,Female,English,Chrome,Mac,800,1280,10.3877,
2721,default,block2,jon,projective,0.87,22817,prove,37,prove,C,[],24,Yes,,Female,English,Chrome,Mac,800,1280,10.3877,
2721,default,block2,garage,projective,0.9,8311,MC,38,MC,MC,[],24,Yes,,Female,English,Chrome,Mac,800,1280,10.3877,
2721,default,block2,zoe,projective,0.93,7695,announce,39,announce,C,[],24,Yes,,Female,English,Chrome,Mac,800,1280,10.3877,
2721,default,block2,julian,projective,0.08,7264,confirm,40,confirm,C,[],24,Yes,,Female,English,Chrome,Mac,800,1280,10.3877,
2721,default,block2,jayden,projective,0.05,10990,confess,41,confess,C,[],24,Yes,,Female,English,Chrome,Mac,800,1280,10.3877,
2721,default,block2,isabella,projective,0.9,6108,think,42,think,C,[],24,Yes,,Female,English,Chrome,Mac,800,1280,10.3877,
2721,default,block2,muffins,projective,1,8568,MC,43,MC,MC,[],24,Yes,,Female,English,Chrome,Mac,800,1280,10.3877,
2721,default,block2,pizza,projective,0.89,4115,MC,44,MC,MC,[],24,Yes,,Female,English,Chrome,Mac,800,1280,10.3877,
2721,default,block2,hat,projective,0.71,8656,MC,45,MC,MC,[],24,Yes,,Female,English,Chrome,Mac,800,1280,10.3877,
2721,default,block2,grace,projective,0.11,5629,demonstrate,46,demonstrate,C,[],24,Yes,,Female,English,Chrome,Mac,800,1280,10.3877,
2721,default,block2,mia,projective,0.12,13767,be_right,47,be_right,C,[],24,Yes,,Female,English,Chrome,Mac,800,1280,10.3877,
2721,default,block2,emily,projective,0.17,27176,admit,48,admit,C,[],24,Yes,,Female,English,Chrome,Mac,800,1280,10.3877,
2721,default,block2,kids,projective,0.92,6139,MC,49,MC,MC,[],24,Yes,,Female,English,Chrome,Mac,800,1280,10.3877,
2721,default,block2,olivia,projective,0.67,7515,discover,50,discover,C,[],24,Yes,,Female,English,Chrome,Mac,800,1280,10.3877,
2721,default,block2,jackson,projective,0.1,5367,say,51,say,C,[],24,Yes,,Female,English,Chrome,Mac,800,1280,10.3877,
2721,default,block2,owen,projective,0.98,14980,acknowledge,52,acknowledge,C,[],24,Yes,,Female,English,Chrome,Mac,800,1280,10.3877,
2721,default,block2,tony,projective,0.94,6920,know,53,know,C,[],24,Yes,,Female,English,Chrome,Mac,800,1280,10.3877,
2721,default,block2,josie,projective,0.13,15317,pretend,54,pretend,C,[],24,Yes,,Female,English,Chrome,Mac,800,1280,10.3877,
2721,default,block2,frank,projective,0.97,5597,hear,55,hear,C,[],24,Yes,,Female,English,Chrome,Mac,800,1280,10.3877,
2721,default,block2,emma,projective,0.82,6500,be_annoyed,56,be_annoyed,C,[],24,Yes,,Female,English,Chrome,Mac,800,1280,10.3877,
2721,default,block2,josh,projective,0.1,8621,establish,57,establish,C,[],24,Yes,,Female,English,Chrome,Mac,800,1280,10.3877,
2631,default,block1,grace,projective,0,14702,demonstrate,5,demonstrate,C,[],20,Yes,,Female,English,Firefox,Windows,1080,1920,8.862266666666667,
2631,default,block1,julian,projective,0,29661,think,6,think,C,[],20,Yes,,Female,English,Firefox,Windows,1080,1920,8.862266666666667,
2631,default,block1,jon,projective,0.68,12411,acknowledge,7,acknowledge,C,[],20,Yes,,Female,English,Firefox,Windows,1080,1920,8.862266666666667,
2631,default,block1,charley,projective,0.74,16320,reveal,8,reveal,C,[],20,Yes,,Female,English,Firefox,Windows,1080,1920,8.862266666666667,
2631,default,block1,emma,projective,0,28944,confess,9,confess,C,[],20,Yes,,Female,English,Firefox,Windows,1080,1920,8.862266666666667,
2631,default,block1,olivia,projective,0.6,7408,announce,10,announce,C,[],20,Yes,,Female,English,Firefox,Windows,1080,1920,8.862266666666667,
2631,default,block1,ballet,projective,1,8076,MC,11,MC,MC,[],20,Yes,,Female,English,Firefox,Windows,1080,1920,8.862266666666667,
2631,default,block1,jackson,projective,0,9192,be_right,12,be_right,C,[],20,Yes,,Female,English,Firefox,Windows,1080,1920,8.862266666666667,
2631,default,block1,isabella,projective,0,7512,confirm,13,confirm,C,[],20,Yes,,Female,English,Firefox,Windows,1080,1920,8.862266666666667,
2631,default,block1,sophia,projective,0,7276,admit,14,admit,C,[],20,Yes,,Female,English,Firefox,Windows,1080,1920,8.862266666666667,
2631,default,block1,mary,projective,0.92,8660,inform,15,inform,C,[],20,Yes,,Female,English,Firefox,Windows,1080,1920,8.862266666666667,
2631,default,block1,frank,projective,1,13664,know,16,know,C,[],20,Yes,,Female,English,Firefox,Windows,1080,1920,8.862266666666667,
2631,default,block1,josie,projective,1,48856,discover,17,discover,C,[],20,Yes,,Female,English,Firefox,Windows,1080,1920,8.862266666666667,
2631,default,block1,owen,projective,0.15,12180,say,18,say,C,[],20,Yes,,Female,English,Firefox,Windows,1080,1920,8.862266666666667,
2631,default,block1,jayden,projective,1,6004,be_annoyed,19,be_annoyed,C,[],20,Yes,,Female,English,Firefox,Windows,1080,1920,8.862266666666667,
2631,default,block1,kids,projective,1,5985,MC,20,MC,MC,[],20,Yes,,Female,English,Firefox,Windows,1080,1920,8.862266666666667,
2631,default,block1,josh,projective,0,42767,suggest,21,suggest,C,[],20,Yes,,Female,English,Firefox,Windows,1080,1920,8.862266666666667,
2631,default,block1,zoe,projective,1,6572,establish,22,establish,C,[],20,Yes,,Female,English,Firefox,Windows,1080,1920,8.862266666666667,
2631,default,block1,emily,projective,1,6460,hear,23,hear,C,[],20,Yes,,Female,English,Firefox,Windows,1080,1920,8.862266666666667,
2631,default,block1,muffins,projective,1,3676,MC,24,MC,MC,[],20,Yes,,Female,English,Firefox,Windows,1080,1920,8.862266666666667,
2631,default,block1,tony,projective,1,5648,see,25,see,C,[],20,Yes,,Female,English,Firefox,Windows,1080,1920,8.862266666666667,
2631,default,block1,garage,projective,1,10076,MC,26,MC,MC,[],20,Yes,,Female,English,Firefox,Windows,1080,1920,8.862266666666667,
2631,default,block1,pizza,projective,1,4984,MC,27,MC,MC,[],20,Yes,,Female,English,Firefox,Windows,1080,1920,8.862266666666667,
2631,default,block1,mia,projective,0.18,16160,pretend,28,pretend,C,[],20,Yes,,Female,English,Firefox,Windows,1080,1920,8.862266666666667,
2631,default,block1,danny,projective,0,7024,prove,29,prove,C,[],20,Yes,,Female,English,Firefox,Windows,1080,1920,8.862266666666667,
2631,default,block1,hat,projective,1,7244,MC,30,MC,MC,[],20,Yes,,Female,English,Firefox,Windows,1080,1920,8.862266666666667,
2631,default,block2,emily,ai,0.08,10967,hear,32,hear,C,[],20,Yes,,Female,English,Firefox,Windows,1080,1920,8.862266666666667,
2631,default,block2,danny,ai,0.1,6117,prove,33,prove,C,[],20,Yes,,Female,English,Firefox,Windows,1080,1920,8.862266666666667,
2631,default,block2,owen,ai,0.07,6907,say,34,say,C,[],20,Yes,,Female,English,Firefox,Windows,1080,1920,8.862266666666667,
2631,default,block2,emma,ai,0.06,6668,confess,35,confess,C,[],20,Yes,,Female,English,Firefox,Windows,1080,1920,8.862266666666667,
2631,default,block2,zoe,ai,0.1,2232,establish,36,establish,C,[],20,Yes,,Female,English,Firefox,Windows,1080,1920,8.862266666666667,
2631,default,block2,josh,ai,0.04,3348,suggest,37,suggest,C,[],20,Yes,,Female,English,Firefox,Windows,1080,1920,8.862266666666667,
2631,default,block2,grace,ai,0.09,1932,demonstrate,38,demonstrate,C,[],20,Yes,,Female,English,Firefox,Windows,1080,1920,8.862266666666667,
2631,default,block2,garage,ai,0.33,7848,MC,39,MC,MC,[],20,Yes,,Female,English,Firefox,Windows,1080,1920,8.862266666666667,
2631,default,block2,sophia,ai,0.05,6064,admit,40,admit,C,[],20,Yes,,Female,English,Firefox,Windows,1080,1920,8.862266666666667,
2631,default,block2,ballet,ai,0,6040,MC,41,MC,MC,[],20,Yes,,Female,English,Firefox,Windows,1080,1920,8.862266666666667,
2631,default,block2,tony,ai,0,12612,see,42,see,C,[],20,Yes,,Female,English,Firefox,Windows,1080,1920,8.862266666666667,
2631,default,block2,jon,ai,0,2724,acknowledge,43,acknowledge,C,[],20,Yes,,Female,English,Firefox,Windows,1080,1920,8.862266666666667,
2631,default,block2,josie,ai,0,2452,discover,44,discover,C,[],20,Yes,,Female,English,Firefox,Windows,1080,1920,8.862266666666667,
2631,default,block2,jackson,ai,0,4011,be_right,45,be_right,C,[],20,Yes,,Female,English,Firefox,Windows,1080,1920,8.862266666666667,
2631,default,block2,pizza,ai,0.89,7629,MC,46,MC,MC,[],20,Yes,,Female,English,Firefox,Windows,1080,1920,8.862266666666667,
2631,default,block2,hat,ai,0.12,4896,MC,47,MC,MC,[],20,Yes,,Female,English,Firefox,Windows,1080,1920,8.862266666666667,
2631,default,block2,muffins,ai,0.9,4924,MC,48,MC,MC,[],20,Yes,,Female,English,Firefox,Windows,1080,1920,8.862266666666667,
2631,default,block2,frank,ai,0.11,3992,know,49,know,C,[],20,Yes,,Female,English,Firefox,Windows,1080,1920,8.862266666666667,
2631,default,block2,mary,ai,0.02,4084,inform,50,inform,C,[],20,Yes,,Female,English,Firefox,Windows,1080,1920,8.862266666666667,
2631,default,block2,olivia,ai,0.07,2604,announce,51,announce,C,[],20,Yes,,Female,English,Firefox,Windows,1080,1920,8.862266666666667,
2631,default,block2,julian,ai,0.07,2868,think,52,think,C,[],20,Yes,,Female,English,Firefox,Windows,1080,1920,8.862266666666667,
2631,default,block2,jayden,ai,0.14,2667,be_annoyed,53,be_annoyed,C,[],20,Yes,,Female,English,Firefox,Windows,1080,1920,8.862266666666667,
2631,default,block2,mia,ai,0.11,3312,pretend,54,pretend,C,[],20,Yes,,Female,English,Firefox,Windows,1080,1920,8.862266666666667,
2631,default,block2,charley,ai,0.1,3508,reveal,55,reveal,C,[],20,Yes,,Female,English,Firefox,Windows,1080,1920,8.862266666666667,
2631,default,block2,kids,ai,0.05,2287,MC,56,MC,MC,[],20,Yes,,Female,English,Firefox,Windows,1080,1920,8.862266666666667,
2631,default,block2,isabella,ai,0.14,3409,confirm,57,confirm,C,[],20,Yes,,Female,English,Firefox,Windows,1080,1920,8.862266666666667,
2662,default,block1,grace,projective,0.95,18911,confirm,5,confirm,C,[],49,Yes,good study.,Male,English,Firefox,Windows,768,1366,3.34345,
2662,default,block1,olivia,projective,0.04,2929,be_right,6,be_right,C,[],49,Yes,good study.,Male,English,Firefox,Windows,768,1366,3.34345,
2662,default,block1,kids,projective,0.98,3143,MC,7,MC,MC,[],49,Yes,good study.,Male,English,Firefox,Windows,768,1366,3.34345,
2662,default,block1,sophia,projective,0.05,1959,confess,8,confess,C,[],49,Yes,good study.,Male,English,Firefox,Windows,768,1366,3.34345,
2662,default,block1,mary,projective,0.97,2119,hear,9,hear,C,[],49,Yes,good study.,Male,English,Firefox,Windows,768,1366,3.34345,
2662,default,block1,charley,projective,0.95,2544,pretend,10,pretend,C,[],49,Yes,good study.,Male,English,Firefox,Windows,768,1366,3.34345,
2662,default,block1,danny,projective,0.99,2390,know,11,know,C,[],49,Yes,good study.,Male,English,Firefox,Windows,768,1366,3.34345,
2662,default,block1,garage,projective,0.93,1680,MC,12,MC,MC,[],49,Yes,good study.,Male,English,Firefox,Windows,768,1366,3.34345,
2662,default,block1,hat,projective,0.98,1551,MC,13,MC,MC,[],49,Yes,good study.,Male,English,Firefox,Windows,768,1366,3.34345,
2662,default,block1,muffins,projective,0.94,2233,MC,14,MC,MC,[],49,Yes,good study.,Male,English,Firefox,Windows,768,1366,3.34345,
2662,default,block1,ballet,projective,0.05,3335,MC,15,MC,MC,[],49,Yes,good study.,Male,English,Firefox,Windows,768,1366,3.34345,
2662,default,block1,owen,projective,0.96,1585,suggest,16,suggest,C,[],49,Yes,good study.,Male,English,Firefox,Windows,768,1366,3.34345,
2662,default,block1,josh,projective,0.02,1792,establish,17,establish,C,[],49,Yes,good study.,Male,English,Firefox,Windows,768,1366,3.34345,
2662,default,block1,jayden,projective,0.96,2487,say,18,say,C,[],49,Yes,good study.,Male,English,Firefox,Windows,768,1366,3.34345,
2662,default,block1,julian,projective,0,1912,demonstrate,19,demonstrate,C,[],49,Yes,good study.,Male,English,Firefox,Windows,768,1366,3.34345,
2662,default,block1,jon,projective,1,3048,acknowledge,20,acknowledge,C,[],49,Yes,good study.,Male,English,Firefox,Windows,768,1366,3.34345,
2662,default,block1,emily,projective,0.06,2433,announce,21,announce,C,[],49,Yes,good study.,Male,English,Firefox,Windows,768,1366,3.34345,
2662,default,block1,jackson,projective,0.97,2815,inform,22,inform,C,[],49,Yes,good study.,Male,English,Firefox,Windows,768,1366,3.34345,
2662,default,block1,pizza,projective,0.96,1872,MC,23,MC,MC,[],49,Yes,good study.,Male,English,Firefox,Windows,768,1366,3.34345,
2662,default,block1,isabella,projective,0.99,2072,think,24,think,C,[],49,Yes,good study.,Male,English,Firefox,Windows,768,1366,3.34345,
2662,default,block1,frank,projective,0.02,4800,admit,25,admit,C,[],49,Yes,good study.,Male,English,Firefox,Windows,768,1366,3.34345,
2662,default,block1,mia,projective,0.94,1744,prove,26,prove,C,[],49,Yes,good study.,Male,English,Firefox,Windows,768,1366,3.34345,
2662,default,block1,emma,projective,0.91,1416,be_annoyed,27,be_annoyed,C,[],49,Yes,good study.,Male,English,Firefox,Windows,768,1366,3.34345,
2662,default,block1,tony,projective,0.94,1241,see,28,see,C,[],49,Yes,good study.,Male,English,Firefox,Windows,768,1366,3.34345,
2662,default,block1,josie,projective,0.96,3647,discover,29,discover,C,[],49,Yes,good study.,Male,English,Firefox,Windows,768,1366,3.34345,
2662,default,block1,zoe,projective,0.99,2328,reveal,30,reveal,C,[],49,Yes,good study.,Male,English,Firefox,Windows,768,1366,3.34345,
2662,default,block2,zoe,ai,0.98,2710,reveal,32,reveal,C,[],49,Yes,good study.,Male,English,Firefox,Windows,768,1366,3.34345,
2662,default,block2,ballet,ai,1,2487,MC,33,MC,MC,[],49,Yes,good study.,Male,English,Firefox,Windows,768,1366,3.34345,
2662,default,block2,emily,ai,0,3016,announce,34,announce,C,[],49,Yes,good study.,Male,English,Firefox,Windows,768,1366,3.34345,
2662,default,block2,owen,ai,0,2081,suggest,35,suggest,C,[],49,Yes,good study.,Male,English,Firefox,Windows,768,1366,3.34345,
2662,default,block2,garage,ai,0.03,2263,MC,36,MC,MC,[],49,Yes,good study.,Male,English,Firefox,Windows,768,1366,3.34345,
2662,default,block2,frank,ai,0.98,2216,admit,37,admit,C,[],49,Yes,good study.,Male,English,Firefox,Windows,768,1366,3.34345,
2662,default,block2,grace,ai,0.97,2087,confirm,38,confirm,C,[],49,Yes,good study.,Male,English,Firefox,Windows,768,1366,3.34345,
2662,default,block2,jackson,ai,0.97,1672,inform,39,inform,C,[],49,Yes,good study.,Male,English,Firefox,Windows,768,1366,3.34345,
2662,default,block2,hat,ai,1,1752,MC,40,MC,MC,[],49,Yes,good study.,Male,English,Firefox,Windows,768,1366,3.34345,
2662,default,block2,jon,ai,0.99,2297,acknowledge,41,acknowledge,C,[],49,Yes,good study.,Male,English,Firefox,Windows,768,1366,3.34345,
2662,default,block2,emma,ai,0.98,2424,be_annoyed,42,be_annoyed,C,[],49,Yes,good study.,Male,English,Firefox,Windows,768,1366,3.34345,
2662,default,block2,julian,ai,0,2119,demonstrate,43,demonstrate,C,[],49,Yes,good study.,Male,English,Firefox,Windows,768,1366,3.34345,
2662,default,block2,mia,ai,1,7982,prove,44,prove,C,[],49,Yes,good study.,Male,English,Firefox,Windows,768,1366,3.34345,
2662,default,block2,charley,ai,1,2952,pretend,45,pretend,C,[],49,Yes,good study.,Male,English,Firefox,Windows,768,1366,3.34345,
2662,default,block2,sophia,ai,0.97,1823,confess,46,confess,C,[],49,Yes,good study.,Male,English,Firefox,Windows,768,1366,3.34345,
2662,default,block2,danny,ai,0.02,2816,know,47,know,C,[],49,Yes,good study.,Male,English,Firefox,Windows,768,1366,3.34345,
2662,default,block2,josh,ai,1,2144,establish,48,establish,C,[],49,Yes,good study.,Male,English,Firefox,Windows,768,1366,3.34345,
2662,default,block2,mary,ai,1,4608,hear,49,hear,C,[],49,Yes,good study.,Male,English,Firefox,Windows,768,1366,3.34345,
2662,default,block2,kids,ai,1,2520,MC,50,MC,MC,[],49,Yes,good study.,Male,English,Firefox,Windows,768,1366,3.34345,
2662,default,block2,pizza,ai,1,2000,MC,51,MC,MC,[],49,Yes,good study.,Male,English,Firefox,Windows,768,1366,3.34345,
2662,default,block2,isabella,ai,0.99,3408,think,52,think,C,[],49,Yes,good study.,Male,English,Firefox,Windows,768,1366,3.34345,
2662,default,block2,olivia,ai,0.98,2399,be_right,53,be_right,C,[],49,Yes,good study.,Male,English,Firefox,Windows,768,1366,3.34345,
2662,default,block2,josie,ai,1,5857,discover,54,discover,C,[],49,Yes,good study.,Male,English,Firefox,Windows,768,1366,3.34345,
2662,default,block2,jayden,ai,0,2552,say,55,say,C,[],49,Yes,good study.,Male,English,Firefox,Windows,768,1366,3.34345,
2662,default,block2,tony,ai,1,2208,see,56,see,C,[],49,Yes,good study.,Male,English,Firefox,Windows,768,1366,3.34345,
2662,default,block2,muffins,ai,1,3329,MC,57,MC,MC,[],49,Yes,good study.,Male,English,Firefox,Windows,768,1366,3.34345,
2724,default,block1,charley,projective,0.28,30794,pretend,5,pretend,C,[],24,Yes,"I felt that the questions that were meant to be 'attention checks' weren't as clear as you stated they would be in the beginning. There weren't many that I felt I was 100% correct on, mostly because it felt like the majority of responses didn't make sense. ",Female,Engligh,Chrome,Mac,900,1440,9.349233333333334,
2724,default,block1,josie,projective,0.03,17768,prove,6,prove,C,[],24,Yes,"I felt that the questions that were meant to be 'attention checks' weren't as clear as you stated they would be in the beginning. There weren't many that I felt I was 100% correct on, mostly because it felt like the majority of responses didn't make sense. ",Female,Engligh,Chrome,Mac,900,1440,9.349233333333334,
2724,default,block1,owen,projective,0.94,12283,see,7,see,C,[],24,Yes,"I felt that the questions that were meant to be 'attention checks' weren't as clear as you stated they would be in the beginning. There weren't many that I felt I was 100% correct on, mostly because it felt like the majority of responses didn't make sense. ",Female,Engligh,Chrome,Mac,900,1440,9.349233333333334,
2724,default,block1,mia,projective,0.73,8516,say,8,say,C,[],24,Yes,"I felt that the questions that were meant to be 'attention checks' weren't as clear as you stated they would be in the beginning. There weren't many that I felt I was 100% correct on, mostly because it felt like the majority of responses didn't make sense. ",Female,Engligh,Chrome,Mac,900,1440,9.349233333333334,
2724,default,block1,muffins,projective,0.92,8891,MC,9,MC,MC,[],24,Yes,"I felt that the questions that were meant to be 'attention checks' weren't as clear as you stated they would be in the beginning. There weren't many that I felt I was 100% correct on, mostly because it felt like the majority of responses didn't make sense. ",Female,Engligh,Chrome,Mac,900,1440,9.349233333333334,
2724,default,block1,josh,projective,0.84,7236,admit,10,admit,C,[],24,Yes,"I felt that the questions that were meant to be 'attention checks' weren't as clear as you stated they would be in the beginning. There weren't many that I felt I was 100% correct on, mostly because it felt like the majority of responses didn't make sense. ",Female,Engligh,Chrome,Mac,900,1440,9.349233333333334,
2724,default,block1,grace,projective,0.92,11627,inform,11,inform,C,[],24,Yes,"I felt that the questions that were meant to be 'attention checks' weren't as clear as you stated they would be in the beginning. There weren't many that I felt I was 100% correct on, mostly because it felt like the majority of responses didn't make sense. ",Female,Engligh,Chrome,Mac,900,1440,9.349233333333334,
2724,default,block1,pizza,projective,0.95,7180,MC,12,MC,MC,[],24,Yes,"I felt that the questions that were meant to be 'attention checks' weren't as clear as you stated they would be in the beginning. There weren't many that I felt I was 100% correct on, mostly because it felt like the majority of responses didn't make sense. ",Female,Engligh,Chrome,Mac,900,1440,9.349233333333334,
2724,default,block1,danny,projective,0.65,7577,establish,13,establish,C,[],24,Yes,"I felt that the questions that were meant to be 'attention checks' weren't as clear as you stated they would be in the beginning. There weren't many that I felt I was 100% correct on, mostly because it felt like the majority of responses didn't make sense. ",Female,Engligh,Chrome,Mac,900,1440,9.349233333333334,
2724,default,block1,jayden,projective,0.32,9776,confess,14,confess,C,[],24,Yes,"I felt that the questions that were meant to be 'attention checks' weren't as clear as you stated they would be in the beginning. There weren't many that I felt I was 100% correct on, mostly because it felt like the majority of responses didn't make sense. ",Female,Engligh,Chrome,Mac,900,1440,9.349233333333334,
2724,default,block1,frank,projective,0.2,9561,think,15,think,C,[],24,Yes,"I felt that the questions that were meant to be 'attention checks' weren't as clear as you stated they would be in the beginning. There weren't many that I felt I was 100% correct on, mostly because it felt like the majority of responses didn't make sense. ",Female,Engligh,Chrome,Mac,900,1440,9.349233333333334,
2724,default,block1,emma,projective,0.31,6744,demonstrate,16,demonstrate,C,[],24,Yes,"I felt that the questions that were meant to be 'attention checks' weren't as clear as you stated they would be in the beginning. There weren't many that I felt I was 100% correct on, mostly because it felt like the majority of responses didn't make sense. ",Female,Engligh,Chrome,Mac,900,1440,9.349233333333334,
2724,default,block1,hat,projective,0.91,6792,MC,17,MC,MC,[],24,Yes,"I felt that the questions that were meant to be 'attention checks' weren't as clear as you stated they would be in the beginning. There weren't many that I felt I was 100% correct on, mostly because it felt like the majority of responses didn't make sense. ",Female,Engligh,Chrome,Mac,900,1440,9.349233333333334,
2724,default,block1,jon,projective,0.77,8203,announce,18,announce,C,[],24,Yes,"I felt that the questions that were meant to be 'attention checks' weren't as clear as you stated they would be in the beginning. There weren't many that I felt I was 100% correct on, mostly because it felt like the majority of responses didn't make sense. ",Female,Engligh,Chrome,Mac,900,1440,9.349233333333334,
2724,default,block1,ballet,projective,0.94,5902,MC,19,MC,MC,[],24,Yes,"I felt that the questions that were meant to be 'attention checks' weren't as clear as you stated they would be in the beginning. There weren't many that I felt I was 100% correct on, mostly because it felt like the majority of responses didn't make sense. ",Female,Engligh,Chrome,Mac,900,1440,9.349233333333334,
2724,default,block1,kids,projective,0.96,8179,MC,20,MC,MC,[],24,Yes,"I felt that the questions that were meant to be 'attention checks' weren't as clear as you stated they would be in the beginning. There weren't many that I felt I was 100% correct on, mostly because it felt like the majority of responses didn't make sense. ",Female,Engligh,Chrome,Mac,900,1440,9.349233333333334,
2724,default,block1,zoe,projective,0.11,10449,be_right,21,be_right,C,[],24,Yes,"I felt that the questions that were meant to be 'attention checks' weren't as clear as you stated they would be in the beginning. There weren't many that I felt I was 100% correct on, mostly because it felt like the majority of responses didn't make sense. ",Female,Engligh,Chrome,Mac,900,1440,9.349233333333334,
2724,default,block1,isabella,projective,0.14,5840,confirm,22,confirm,C,[],24,Yes,"I felt that the questions that were meant to be 'attention checks' weren't as clear as you stated they would be in the beginning. There weren't many that I felt I was 100% correct on, mostly because it felt like the majority of responses didn't make sense. ",Female,Engligh,Chrome,Mac,900,1440,9.349233333333334,
2724,default,block1,olivia,projective,0.72,6909,be_annoyed,23,be_annoyed,C,[],24,Yes,"I felt that the questions that were meant to be 'attention checks' weren't as clear as you stated they would be in the beginning. There weren't many that I felt I was 100% correct on, mostly because it felt like the majority of responses didn't make sense. ",Female,Engligh,Chrome,Mac,900,1440,9.349233333333334,
2724,default,block1,emily,projective,0.86,4846,know,24,know,C,[],24,Yes,"I felt that the questions that were meant to be 'attention checks' weren't as clear as you stated they would be in the beginning. There weren't many that I felt I was 100% correct on, mostly because it felt like the majority of responses didn't make sense. ",Female,Engligh,Chrome,Mac,900,1440,9.349233333333334,
2724,default,block1,jackson,projective,0.78,4788,discover,25,discover,C,[],24,Yes,"I felt that the questions that were meant to be 'attention checks' weren't as clear as you stated they would be in the beginning. There weren't many that I felt I was 100% correct on, mostly because it felt like the majority of responses didn't make sense. ",Female,Engligh,Chrome,Mac,900,1440,9.349233333333334,
2724,default,block1,sophia,projective,0.22,4347,suggest,26,suggest,C,[],24,Yes,"I felt that the questions that were meant to be 'attention checks' weren't as clear as you stated they would be in the beginning. There weren't many that I felt I was 100% correct on, mostly because it felt like the majority of responses didn't make sense. ",Female,Engligh,Chrome,Mac,900,1440,9.349233333333334,
2724,default,block1,julian,projective,0.73,6005,acknowledge,27,acknowledge,C,[],24,Yes,"I felt that the questions that were meant to be 'attention checks' weren't as clear as you stated they would be in the beginning. There weren't many that I felt I was 100% correct on, mostly because it felt like the majority of responses didn't make sense. ",Female,Engligh,Chrome,Mac,900,1440,9.349233333333334,
2724,default,block1,tony,projective,0.77,6626,hear,28,hear,C,[],24,Yes,"I felt that the questions that were meant to be 'attention checks' weren't as clear as you stated they would be in the beginning. There weren't many that I felt I was 100% correct on, mostly because it felt like the majority of responses didn't make sense. ",Female,Engligh,Chrome,Mac,900,1440,9.349233333333334,
2724,default,block1,garage,projective,0.95,7260,MC,29,MC,MC,[],24,Yes,"I felt that the questions that were meant to be 'attention checks' weren't as clear as you stated they would be in the beginning. There weren't many that I felt I was 100% correct on, mostly because it felt like the majority of responses didn't make sense. ",Female,Engligh,Chrome,Mac,900,1440,9.349233333333334,
2724,default,block1,mary,projective,0.2,6284,reveal,30,reveal,C,[],24,Yes,"I felt that the questions that were meant to be 'attention checks' weren't as clear as you stated they would be in the beginning. There weren't many that I felt I was 100% correct on, mostly because it felt like the majority of responses didn't make sense. ",Female,Engligh,Chrome,Mac,900,1440,9.349233333333334,
2724,default,block2,danny,ai,0.03,12298,establish,32,establish,C,[],24,Yes,"I felt that the questions that were meant to be 'attention checks' weren't as clear as you stated they would be in the beginning. There weren't many that I felt I was 100% correct on, mostly because it felt like the majority of responses didn't make sense. ",Female,Engligh,Chrome,Mac,900,1440,9.349233333333334,
2724,default,block2,julian,ai,0.06,9243,acknowledge,33,acknowledge,C,[],24,Yes,"I felt that the questions that were meant to be 'attention checks' weren't as clear as you stated they would be in the beginning. There weren't many that I felt I was 100% correct on, mostly because it felt like the majority of responses didn't make sense. ",Female,Engligh,Chrome,Mac,900,1440,9.349233333333334,
2724,default,block2,isabella,ai,0.03,8349,confirm,34,confirm,C,[],24,Yes,"I felt that the questions that were meant to be 'attention checks' weren't as clear as you stated they would be in the beginning. There weren't many that I felt I was 100% correct on, mostly because it felt like the majority of responses didn't make sense. ",Female,Engligh,Chrome,Mac,900,1440,9.349233333333334,
2724,default,block2,emma,ai,0.07,14126,demonstrate,35,demonstrate,C,[],24,Yes,"I felt that the questions that were meant to be 'attention checks' weren't as clear as you stated they would be in the beginning. There weren't many that I felt I was 100% correct on, mostly because it felt like the majority of responses didn't make sense. ",Female,Engligh,Chrome,Mac,900,1440,9.349233333333334,
2724,default,block2,pizza,ai,0.79,10556,MC,36,MC,MC,[],24,Yes,"I felt that the questions that were meant to be 'attention checks' weren't as clear as you stated they would be in the beginning. There weren't many that I felt I was 100% correct on, mostly because it felt like the majority of responses didn't make sense. ",Female,Engligh,Chrome,Mac,900,1440,9.349233333333334,
2724,default,block2,ballet,ai,0.9,4567,MC,37,MC,MC,[],24,Yes,"I felt that the questions that were meant to be 'attention checks' weren't as clear as you stated they would be in the beginning. There weren't many that I felt I was 100% correct on, mostly because it felt like the majority of responses didn't make sense. ",Female,Engligh,Chrome,Mac,900,1440,9.349233333333334,
2724,default,block2,mia,ai,0.03,4253,say,38,say,C,[],24,Yes,"I felt that the questions that were meant to be 'attention checks' weren't as clear as you stated they would be in the beginning. There weren't many that I felt I was 100% correct on, mostly because it felt like the majority of responses didn't make sense. ",Female,Engligh,Chrome,Mac,900,1440,9.349233333333334,
2724,default,block2,josie,ai,0.03,4478,prove,39,prove,C,[],24,Yes,"I felt that the questions that were meant to be 'attention checks' weren't as clear as you stated they would be in the beginning. There weren't many that I felt I was 100% correct on, mostly because it felt like the majority of responses didn't make sense. ",Female,Engligh,Chrome,Mac,900,1440,9.349233333333334,
2724,default,block2,zoe,ai,0.04,4080,be_right,40,be_right,C,[],24,Yes,"I felt that the questions that were meant to be 'attention checks' weren't as clear as you stated they would be in the beginning. There weren't many that I felt I was 100% correct on, mostly because it felt like the majority of responses didn't make sense. ",Female,Engligh,Chrome,Mac,900,1440,9.349233333333334,
2724,default,block2,charley,ai,0.02,4833,pretend,41,pretend,C,[],24,Yes,"I felt that the questions that were meant to be 'attention checks' weren't as clear as you stated they would be in the beginning. There weren't many that I felt I was 100% correct on, mostly because it felt like the majority of responses didn't make sense. ",Female,Engligh,Chrome,Mac,900,1440,9.349233333333334,
2724,default,block2,frank,ai,0.04,4544,think,42,think,C,[],24,Yes,"I felt that the questions that were meant to be 'attention checks' weren't as clear as you stated they would be in the beginning. There weren't many that I felt I was 100% correct on, mostly because it felt like the majority of responses didn't make sense. ",Female,Engligh,Chrome,Mac,900,1440,9.349233333333334,
2724,default,block2,jayden,ai,0.03,4038,confess,43,confess,C,[],24,Yes,"I felt that the questions that were meant to be 'attention checks' weren't as clear as you stated they would be in the beginning. There weren't many that I felt I was 100% correct on, mostly because it felt like the majority of responses didn't make sense. ",Female,Engligh,Chrome,Mac,900,1440,9.349233333333334,
2724,default,block2,garage,ai,0.98,5665,MC,44,MC,MC,[],24,Yes,"I felt that the questions that were meant to be 'attention checks' weren't as clear as you stated they would be in the beginning. There weren't many that I felt I was 100% correct on, mostly because it felt like the majority of responses didn't make sense. ",Female,Engligh,Chrome,Mac,900,1440,9.349233333333334,
2724,default,block2,emily,ai,0.03,3916,know,45,know,C,[],24,Yes,"I felt that the questions that were meant to be 'attention checks' weren't as clear as you stated they would be in the beginning. There weren't many that I felt I was 100% correct on, mostly because it felt like the majority of responses didn't make sense. ",Female,Engligh,Chrome,Mac,900,1440,9.349233333333334,
2724,default,block2,josh,ai,0.04,5220,admit,46,admit,C,[],24,Yes,"I felt that the questions that were meant to be 'attention checks' weren't as clear as you stated they would be in the beginning. There weren't many that I felt I was 100% correct on, mostly because it felt like the majority of responses didn't make sense. ",Female,Engligh,Chrome,Mac,900,1440,9.349233333333334,
2724,default,block2,owen,ai,0.03,3721,see,47,see,C,[],24,Yes,"I felt that the questions that were meant to be 'attention checks' weren't as clear as you stated they would be in the beginning. There weren't many that I felt I was 100% correct on, mostly because it felt like the majority of responses didn't make sense. ",Female,Engligh,Chrome,Mac,900,1440,9.349233333333334,
2724,default,block2,hat,ai,0.97,4207,MC,48,MC,MC,[],24,Yes,"I felt that the questions that were meant to be 'attention checks' weren't as clear as you stated they would be in the beginning. There weren't many that I felt I was 100% correct on, mostly because it felt like the majority of responses didn't make sense. ",Female,Engligh,Chrome,Mac,900,1440,9.349233333333334,
2724,default,block2,jon,ai,0.02,3400,announce,49,announce,C,[],24,Yes,"I felt that the questions that were meant to be 'attention checks' weren't as clear as you stated they would be in the beginning. There weren't many that I felt I was 100% correct on, mostly because it felt like the majority of responses didn't make sense. ",Female,Engligh,Chrome,Mac,900,1440,9.349233333333334,
2724,default,block2,kids,ai,0.97,4201,MC,50,MC,MC,[],24,Yes,"I felt that the questions that were meant to be 'attention checks' weren't as clear as you stated they would be in the beginning. There weren't many that I felt I was 100% correct on, mostly because it felt like the majority of responses didn't make sense. ",Female,Engligh,Chrome,Mac,900,1440,9.349233333333334,
2724,default,block2,sophia,ai,0.03,2991,suggest,51,suggest,C,[],24,Yes,"I felt that the questions that were meant to be 'attention checks' weren't as clear as you stated they would be in the beginning. There weren't many that I felt I was 100% correct on, mostly because it felt like the majority of responses didn't make sense. ",Female,Engligh,Chrome,Mac,900,1440,9.349233333333334,
2724,default,block2,muffins,ai,0.95,3944,MC,52,MC,MC,[],24,Yes,"I felt that the questions that were meant to be 'attention checks' weren't as clear as you stated they would be in the beginning. There weren't many that I felt I was 100% correct on, mostly because it felt like the majority of responses didn't make sense. ",Female,Engligh,Chrome,Mac,900,1440,9.349233333333334,
2724,default,block2,tony,ai,0.05,3664,hear,53,hear,C,[],24,Yes,"I felt that the questions that were meant to be 'attention checks' weren't as clear as you stated they would be in the beginning. There weren't many that I felt I was 100% correct on, mostly because it felt like the majority of responses didn't make sense. ",Female,Engligh,Chrome,Mac,900,1440,9.349233333333334,
2724,default,block2,jackson,ai,0.03,3603,discover,54,discover,C,[],24,Yes,"I felt that the questions that were meant to be 'attention checks' weren't as clear as you stated they would be in the beginning. There weren't many that I felt I was 100% correct on, mostly because it felt like the majority of responses didn't make sense. ",Female,Engligh,Chrome,Mac,900,1440,9.349233333333334,
2724,default,block2,olivia,ai,0.03,5430,be_annoyed,55,be_annoyed,C,[],24,Yes,"I felt that the questions that were meant to be 'attention checks' weren't as clear as you stated they would be in the beginning. There weren't many that I felt I was 100% correct on, mostly because it felt like the majority of responses didn't make sense. ",Female,Engligh,Chrome,Mac,900,1440,9.349233333333334,
2724,default,block2,mary,ai,0.04,3575,reveal,56,reveal,C,[],24,Yes,"I felt that the questions that were meant to be 'attention checks' weren't as clear as you stated they would be in the beginning. There weren't many that I felt I was 100% correct on, mostly because it felt like the majority of responses didn't make sense. ",Female,Engligh,Chrome,Mac,900,1440,9.349233333333334,
2724,default,block2,grace,ai,0.01,4666,inform,57,inform,C,[],24,Yes,"I felt that the questions that were meant to be 'attention checks' weren't as clear as you stated they would be in the beginning. There weren't many that I felt I was 100% correct on, mostly because it felt like the majority of responses didn't make sense. ",Female,Engligh,Chrome,Mac,900,1440,9.349233333333334,
2555,default,block1,jackson,projective,0.01,14830,announce,5,announce,C,[],18,Yes,,Female,English,Chrome,Windows,720,1280,8.259366666666667,
2555,default,block1,charley,projective,0.01,16558,be_right,6,be_right,C,[],18,Yes,,Female,English,Chrome,Windows,720,1280,8.259366666666667,
2555,default,block1,hat,projective,0.98,6994,MC,7,MC,MC,[],18,Yes,,Female,English,Chrome,Windows,720,1280,8.259366666666667,
2555,default,block1,isabella,projective,0.98,14082,discover,8,discover,C,[],18,Yes,,Female,English,Chrome,Windows,720,1280,8.259366666666667,
2555,default,block1,olivia,projective,0.09,11465,say,9,say,C,[],18,Yes,,Female,English,Chrome,Windows,720,1280,8.259366666666667,
2555,default,block1,garage,projective,0.98,10154,MC,10,MC,MC,[],18,Yes,,Female,English,Chrome,Windows,720,1280,8.259366666666667,
2555,default,block1,josh,projective,0.95,9315,acknowledge,11,acknowledge,C,[],18,Yes,,Female,English,Chrome,Windows,720,1280,8.259366666666667,
2555,default,block1,muffins,projective,0.98,5300,MC,12,MC,MC,[],18,Yes,,Female,English,Chrome,Windows,720,1280,8.259366666666667,
2555,default,block1,zoe,projective,0.99,7131,hear,13,hear,C,[],18,Yes,,Female,English,Chrome,Windows,720,1280,8.259366666666667,
