workerid,proliferate.condition,block,content,question_type,response,rt,short_trigger,slide_number_in_experiment,trigger,trigger_class,catch_trials,subject_information.age,subject_information.american,subject_information.comments,subject_information.gender,subject_information.language,system.Browser,system.OS,system.screenH,system.screenW,time_in_minutes,error
1119,default,block1,kids,ai,0.83,27997,MC,5,MC,MC,[],22,Yes,NONE,Female,ENglish,Chrome,Windows,864,1536,16.228483333333333,
1119,default,block1,hat,ai,0.89,10155,MC,6,MC,MC,[],22,Yes,NONE,Female,ENglish,Chrome,Windows,864,1536,16.228483333333333,
1119,default,block1,jayden,ai,0.14,21428,see,7,see,C,[],22,Yes,NONE,Female,ENglish,Chrome,Windows,864,1536,16.228483333333333,
1119,default,block1,frank,ai,0.77,30332,establish,8,establish,C,[],22,Yes,NONE,Female,ENglish,Chrome,Windows,864,1536,16.228483333333333,
1119,default,block1,olivia,ai,0.85,10886,hear,9,hear,C,[],22,Yes,NONE,Female,ENglish,Chrome,Windows,864,1536,16.228483333333333,
1119,default,block1,josh,ai,0.9,28266,know,10,know,C,[],22,Yes,NONE,Female,ENglish,Chrome,Windows,864,1536,16.228483333333333,
1119,default,block1,isabella,ai,0.03,20625,suggest,11,suggest,C,[],22,Yes,NONE,Female,ENglish,Chrome,Windows,864,1536,16.228483333333333,
1119,default,block1,tony,ai,0.04,21077,be_right,12,be_right,C,[],22,Yes,NONE,Female,ENglish,Chrome,Windows,864,1536,16.228483333333333,
1119,default,block1,emily,ai,0.06,26048,prove,13,prove,C,[],22,Yes,NONE,Female,ENglish,Chrome,Windows,864,1536,16.228483333333333,
1119,default,block1,owen,ai,0.91,12983,admit,14,admit,C,[],22,Yes,NONE,Female,ENglish,Chrome,Windows,864,1536,16.228483333333333,
1119,default,block1,julian,ai,0.98,17828,reveal,15,reveal,C,[],22,Yes,NONE,Female,ENglish,Chrome,Windows,864,1536,16.228483333333333,
1119,default,block1,mary,ai,0.05,17416,be_annoyed,16,be_annoyed,C,[],22,Yes,NONE,Female,ENglish,Chrome,Windows,864,1536,16.228483333333333,
1119,default,block1,pizza,ai,0.84,20351,MC,17,MC,MC,[],22,Yes,NONE,Female,ENglish,Chrome,Windows,864,1536,16.228483333333333,
1119,default,block1,garage,ai,0.91,10200,MC,18,MC,MC,[],22,Yes,NONE,Female,ENglish,Chrome,Windows,864,1536,16.228483333333333,
1119,default,block1,sophia,ai,0.74,16399,announce,19,announce,C,[],22,Yes,NONE,Female,ENglish,Chrome,Windows,864,1536,16.228483333333333,
1119,default,block1,mia,ai,0.76,15874,demonstrate,20,demonstrate,C,[],22,Yes,NONE,Female,ENglish,Chrome,Windows,864,1536,16.228483333333333,
1119,default,block1,charley,ai,0.74,14371,think,21,think,C,[],22,Yes,NONE,Female,ENglish,Chrome,Windows,864,1536,16.228483333333333,
1119,default,block1,emma,ai,0.89,14570,confirm,22,confirm,C,[],22,Yes,NONE,Female,ENglish,Chrome,Windows,864,1536,16.228483333333333,
1119,default,block1,jon,ai,0.98,17541,say,23,say,C,[],22,Yes,NONE,Female,ENglish,Chrome,Windows,864,1536,16.228483333333333,
1119,default,block1,grace,ai,0.91,8764,confess,24,confess,C,[],22,Yes,NONE,Female,ENglish,Chrome,Windows,864,1536,16.228483333333333,
1119,default,block1,jackson,ai,0.17,17189,inform,25,inform,C,[],22,Yes,NONE,Female,ENglish,Chrome,Windows,864,1536,16.228483333333333,
1119,default,block1,danny,ai,0.11,18267,pretend,26,pretend,C,[],22,Yes,NONE,Female,ENglish,Chrome,Windows,864,1536,16.228483333333333,
1119,default,block1,ballet,ai,0.81,11019,MC,27,MC,MC,[],22,Yes,NONE,Female,ENglish,Chrome,Windows,864,1536,16.228483333333333,
1119,default,block1,josie,ai,0.82,16141,acknowledge,28,acknowledge,C,[],22,Yes,NONE,Female,ENglish,Chrome,Windows,864,1536,16.228483333333333,
1119,default,block1,muffins,ai,0.71,10717,MC,29,MC,MC,[],22,Yes,NONE,Female,ENglish,Chrome,Windows,864,1536,16.228483333333333,
1119,default,block1,zoe,ai,0.81,12947,discover,30,discover,C,[],22,Yes,NONE,Female,ENglish,Chrome,Windows,864,1536,16.228483333333333,
1119,default,block2,jayden,projective,0.02,19841,see,32,see,C,[],22,Yes,NONE,Female,ENglish,Chrome,Windows,864,1536,16.228483333333333,
1119,default,block2,hat,projective,0.99,8947,MC,33,MC,MC,[],22,Yes,NONE,Female,ENglish,Chrome,Windows,864,1536,16.228483333333333,
1119,default,block2,frank,projective,0.97,10028,establish,34,establish,C,[],22,Yes,NONE,Female,ENglish,Chrome,Windows,864,1536,16.228483333333333,
1119,default,block2,tony,projective,0.17,33649,be_right,35,be_right,C,[],22,Yes,NONE,Female,ENglish,Chrome,Windows,864,1536,16.228483333333333,
1119,default,block2,josie,projective,0.95,24897,acknowledge,36,acknowledge,C,[],22,Yes,NONE,Female,ENglish,Chrome,Windows,864,1536,16.228483333333333,
1119,default,block2,jon,projective,0.96,16405,say,37,say,C,[],22,Yes,NONE,Female,ENglish,Chrome,Windows,864,1536,16.228483333333333,
1119,default,block2,zoe,projective,0.02,20130,discover,38,discover,C,[],22,Yes,NONE,Female,ENglish,Chrome,Windows,864,1536,16.228483333333333,
1119,default,block2,mia,projective,0.8,10137,demonstrate,39,demonstrate,C,[],22,Yes,NONE,Female,ENglish,Chrome,Windows,864,1536,16.228483333333333,
1119,default,block2,pizza,projective,0.99,8424,MC,40,MC,MC,[],22,Yes,NONE,Female,ENglish,Chrome,Windows,864,1536,16.228483333333333,
1119,default,block2,kids,projective,0.97,14982,MC,41,MC,MC,[],22,Yes,NONE,Female,ENglish,Chrome,Windows,864,1536,16.228483333333333,
1119,default,block2,mary,projective,0.96,8494,be_annoyed,42,be_annoyed,C,[],22,Yes,NONE,Female,ENglish,Chrome,Windows,864,1536,16.228483333333333,
1119,default,block2,danny,projective,0.04,17848,pretend,43,pretend,C,[],22,Yes,NONE,Female,ENglish,Chrome,Windows,864,1536,16.228483333333333,
1119,default,block2,emily,projective,0.04,13695,prove,44,prove,C,[],22,Yes,NONE,Female,ENglish,Chrome,Windows,864,1536,16.228483333333333,
1119,default,block2,julian,projective,0.03,8375,reveal,45,reveal,C,[],22,Yes,NONE,Female,ENglish,Chrome,Windows,864,1536,16.228483333333333,
1119,default,block2,ballet,projective,0.97,7361,MC,46,MC,MC,[],22,Yes,NONE,Female,ENglish,Chrome,Windows,864,1536,16.228483333333333,
1119,default,block2,olivia,projective,0.06,11281,hear,47,hear,C,[],22,Yes,NONE,Female,ENglish,Chrome,Windows,864,1536,16.228483333333333,
1119,default,block2,owen,projective,0.04,21334,admit,48,admit,C,[],22,Yes,NONE,Female,ENglish,Chrome,Windows,864,1536,16.228483333333333,
1119,default,block2,charley,projective,0.04,26987,think,49,think,C,[],22,Yes,NONE,Female,ENglish,Chrome,Windows,864,1536,16.228483333333333,
1119,default,block2,grace,projective,0.04,9706,confess,50,confess,C,[],22,Yes,NONE,Female,ENglish,Chrome,Windows,864,1536,16.228483333333333,
1119,default,block2,sophia,projective,0.48,13444,announce,51,announce,C,[],22,Yes,NONE,Female,ENglish,Chrome,Windows,864,1536,16.228483333333333,
1119,default,block2,jackson,projective,0.97,15254,inform,52,inform,C,[],22,Yes,NONE,Female,ENglish,Chrome,Windows,864,1536,16.228483333333333,
1119,default,block2,isabella,projective,0.03,14704,suggest,53,suggest,C,[],22,Yes,NONE,Female,ENglish,Chrome,Windows,864,1536,16.228483333333333,
1119,default,block2,josh,projective,0.96,21153,know,54,know,C,[],22,Yes,NONE,Female,ENglish,Chrome,Windows,864,1536,16.228483333333333,
1119,default,block2,muffins,projective,0.95,7048,MC,55,MC,MC,[],22,Yes,NONE,Female,ENglish,Chrome,Windows,864,1536,16.228483333333333,
1119,default,block2,garage,projective,0.97,7552,MC,56,MC,MC,[],22,Yes,NONE,Female,ENglish,Chrome,Windows,864,1536,16.228483333333333,
1119,default,block2,emma,projective,0.02,20411,confirm,57,confirm,C,[],22,Yes,NONE,Female,ENglish,Chrome,Windows,864,1536,16.228483333333333,
1117,default,block1,frank,projective,0.07,13529,announce,5,announce,C,[],22,Yes,,Female,english ,Chrome,Mac,800,1280,8.264333333333333,
1117,default,block1,tony,projective,0.25,10681,say,6,say,C,[],22,Yes,,Female,english ,Chrome,Mac,800,1280,8.264333333333333,
1117,default,block1,isabella,projective,0.68,17464,prove,7,prove,C,[],22,Yes,,Female,english ,Chrome,Mac,800,1280,8.264333333333333,
1117,default,block1,zoe,projective,0.74,4756,know,8,know,C,[],22,Yes,,Female,english ,Chrome,Mac,800,1280,8.264333333333333,
1117,default,block1,hat,projective,0.95,6832,MC,9,MC,MC,[],22,Yes,,Female,english ,Chrome,Mac,800,1280,8.264333333333333,
1117,default,block1,danny,projective,0.71,9534,be_right,10,be_right,C,[],22,Yes,,Female,english ,Chrome,Mac,800,1280,8.264333333333333,
1117,default,block1,emily,projective,0.8,7117,confess,11,confess,C,[],22,Yes,,Female,english ,Chrome,Mac,800,1280,8.264333333333333,
1117,default,block1,jackson,projective,0.32,6587,be_annoyed,12,be_annoyed,C,[],22,Yes,,Female,english ,Chrome,Mac,800,1280,8.264333333333333,
1117,default,block1,kids,projective,0.97,7211,MC,13,MC,MC,[],22,Yes,,Female,english ,Chrome,Mac,800,1280,8.264333333333333,
1117,default,block1,muffins,projective,0.99,5927,MC,14,MC,MC,[],22,Yes,,Female,english ,Chrome,Mac,800,1280,8.264333333333333,
1117,default,block1,ballet,projective,0.98,4657,MC,15,MC,MC,[],22,Yes,,Female,english ,Chrome,Mac,800,1280,8.264333333333333,
1117,default,block1,sophia,projective,0.58,8254,admit,16,admit,C,[],22,Yes,,Female,english ,Chrome,Mac,800,1280,8.264333333333333,
1117,default,block1,olivia,projective,0.31,6354,think,17,think,C,[],22,Yes,,Female,english ,Chrome,Mac,800,1280,8.264333333333333,
1117,default,block1,jayden,projective,0.36,5849,see,18,see,C,[],22,Yes,,Female,english ,Chrome,Mac,800,1280,8.264333333333333,
1117,default,block1,mary,projective,0.34,4484,reveal,19,reveal,C,[],22,Yes,,Female,english ,Chrome,Mac,800,1280,8.264333333333333,
1117,default,block1,jon,projective,0.34,4956,establish,20,establish,C,[],22,Yes,,Female,english ,Chrome,Mac,800,1280,8.264333333333333,
1117,default,block1,charley,projective,0.23,5863,pretend,21,pretend,C,[],22,Yes,,Female,english ,Chrome,Mac,800,1280,8.264333333333333,
1117,default,block1,grace,projective,0.65,7191,discover,22,discover,C,[],22,Yes,,Female,english ,Chrome,Mac,800,1280,8.264333333333333,
1117,default,block1,josie,projective,0.89,8554,inform,23,inform,C,[],22,Yes,,Female,english ,Chrome,Mac,800,1280,8.264333333333333,
1117,default,block1,josh,projective,0.79,8443,acknowledge,24,acknowledge,C,[],22,Yes,,Female,english ,Chrome,Mac,800,1280,8.264333333333333,
1117,default,block1,pizza,projective,1,5920,MC,25,MC,MC,[],22,Yes,,Female,english ,Chrome,Mac,800,1280,8.264333333333333,
1117,default,block1,julian,projective,0.52,5510,hear,26,hear,C,[],22,Yes,,Female,english ,Chrome,Mac,800,1280,8.264333333333333,
1117,default,block1,emma,projective,0.32,6257,suggest,27,suggest,C,[],22,Yes,,Female,english ,Chrome,Mac,800,1280,8.264333333333333,
1117,default,block1,garage,projective,1,10492,MC,28,MC,MC,[],22,Yes,,Female,english ,Chrome,Mac,800,1280,8.264333333333333,
1117,default,block1,mia,projective,0.27,6903,demonstrate,29,demonstrate,C,[],22,Yes,,Female,english ,Chrome,Mac,800,1280,8.264333333333333,
1117,default,block1,owen,projective,0.75,3412,confirm,30,confirm,C,[],22,Yes,,Female,english ,Chrome,Mac,800,1280,8.264333333333333,
1117,default,block2,ballet,ai,0.57,17922,MC,32,MC,MC,[],22,Yes,,Female,english ,Chrome,Mac,800,1280,8.264333333333333,
1117,default,block2,jon,ai,0.2,9590,establish,33,establish,C,[],22,Yes,,Female,english ,Chrome,Mac,800,1280,8.264333333333333,
1117,default,block2,mia,ai,0.26,5844,demonstrate,34,demonstrate,C,[],22,Yes,,Female,english ,Chrome,Mac,800,1280,8.264333333333333,
1117,default,block2,tony,ai,0.37,16161,say,35,say,C,[],22,Yes,,Female,english ,Chrome,Mac,800,1280,8.264333333333333,
1117,default,block2,grace,ai,0.38,10168,discover,36,discover,C,[],22,Yes,,Female,english ,Chrome,Mac,800,1280,8.264333333333333,
1117,default,block2,danny,ai,0.31,8327,be_right,37,be_right,C,[],22,Yes,,Female,english ,Chrome,Mac,800,1280,8.264333333333333,
1117,default,block2,emily,ai,0.66,11178,confess,38,confess,C,[],22,Yes,,Female,english ,Chrome,Mac,800,1280,8.264333333333333,
1117,default,block2,frank,ai,0.4,6738,announce,39,announce,C,[],22,Yes,,Female,english ,Chrome,Mac,800,1280,8.264333333333333,
1117,default,block2,kids,ai,0.65,12919,MC,40,MC,MC,[],22,Yes,,Female,english ,Chrome,Mac,800,1280,8.264333333333333,
1117,default,block2,owen,ai,0.66,7271,confirm,41,confirm,C,[],22,Yes,,Female,english ,Chrome,Mac,800,1280,8.264333333333333,
1117,default,block2,emma,ai,0.62,7338,suggest,42,suggest,C,[],22,Yes,,Female,english ,Chrome,Mac,800,1280,8.264333333333333,
1117,default,block2,zoe,ai,0.6,5437,know,43,know,C,[],22,Yes,,Female,english ,Chrome,Mac,800,1280,8.264333333333333,
1117,default,block2,isabella,ai,0.55,9381,prove,44,prove,C,[],22,Yes,,Female,english ,Chrome,Mac,800,1280,8.264333333333333,
1117,default,block2,garage,ai,0.52,9920,MC,45,MC,MC,[],22,Yes,,Female,english ,Chrome,Mac,800,1280,8.264333333333333,
1117,default,block2,julian,ai,0.6,7732,hear,46,hear,C,[],22,Yes,,Female,english ,Chrome,Mac,800,1280,8.264333333333333,
1117,default,block2,charley,ai,0.3,9738,pretend,47,pretend,C,[],22,Yes,,Female,english ,Chrome,Mac,800,1280,8.264333333333333,
1117,default,block2,jackson,ai,0.6,10237,be_annoyed,48,be_annoyed,C,[],22,Yes,,Female,english ,Chrome,Mac,800,1280,8.264333333333333,
1117,default,block2,sophia,ai,0.57,5813,admit,49,admit,C,[],22,Yes,,Female,english ,Chrome,Mac,800,1280,8.264333333333333,
1117,default,block2,muffins,ai,0.63,7078,MC,50,MC,MC,[],22,Yes,,Female,english ,Chrome,Mac,800,1280,8.264333333333333,
1117,default,block2,mary,ai,0.62,5916,reveal,51,reveal,C,[],22,Yes,,Female,english ,Chrome,Mac,800,1280,8.264333333333333,
1117,default,block2,jayden,ai,0.66,3965,see,52,see,C,[],22,Yes,,Female,english ,Chrome,Mac,800,1280,8.264333333333333,
1117,default,block2,josie,ai,0.61,4571,inform,53,inform,C,[],22,Yes,,Female,english ,Chrome,Mac,800,1280,8.264333333333333,
1117,default,block2,pizza,ai,0.62,6164,MC,54,MC,MC,[],22,Yes,,Female,english ,Chrome,Mac,800,1280,8.264333333333333,
1117,default,block2,olivia,ai,0.64,6231,think,55,think,C,[],22,Yes,,Female,english ,Chrome,Mac,800,1280,8.264333333333333,
1117,default,block2,hat,ai,0.62,5474,MC,56,MC,MC,[],22,Yes,,Female,english ,Chrome,Mac,800,1280,8.264333333333333,
1117,default,block2,josh,ai,0.36,5735,acknowledge,57,acknowledge,C,[],22,Yes,,Female,english ,Chrome,Mac,800,1280,8.264333333333333,
1114,default,block1,mary,ai,0.72,28417,inform,5,inform,C,[],24,Yes,"I was confused at first by the prompts and felt like I was unsure of my answers. As I started to read them out loud, my answers felt more solidified in what I thought sounded correct or not.",Female,English,Safari,Mac,900,1440,10.9158,
1114,default,block1,ballet,ai,0.86,8369,MC,6,MC,MC,[],24,Yes,"I was confused at first by the prompts and felt like I was unsure of my answers. As I started to read them out loud, my answers felt more solidified in what I thought sounded correct or not.",Female,English,Safari,Mac,900,1440,10.9158,
1114,default,block1,josh,ai,0.79,29738,announce,7,announce,C,[],24,Yes,"I was confused at first by the prompts and felt like I was unsure of my answers. As I started to read them out loud, my answers felt more solidified in what I thought sounded correct or not.",Female,English,Safari,Mac,900,1440,10.9158,
1114,default,block1,isabella,ai,0.18,9761,admit,8,admit,C,[],24,Yes,"I was confused at first by the prompts and felt like I was unsure of my answers. As I started to read them out loud, my answers felt more solidified in what I thought sounded correct or not.",Female,English,Safari,Mac,900,1440,10.9158,
1114,default,block1,grace,ai,0.77,9657,reveal,9,reveal,C,[],24,Yes,"I was confused at first by the prompts and felt like I was unsure of my answers. As I started to read them out loud, my answers felt more solidified in what I thought sounded correct or not.",Female,English,Safari,Mac,900,1440,10.9158,
1114,default,block1,emma,ai,0.12,10185,discover,10,discover,C,[],24,Yes,"I was confused at first by the prompts and felt like I was unsure of my answers. As I started to read them out loud, my answers felt more solidified in what I thought sounded correct or not.",Female,English,Safari,Mac,900,1440,10.9158,
1114,default,block1,garage,ai,0.12,6850,MC,11,MC,MC,[],24,Yes,"I was confused at first by the prompts and felt like I was unsure of my answers. As I started to read them out loud, my answers felt more solidified in what I thought sounded correct or not.",Female,English,Safari,Mac,900,1440,10.9158,
1114,default,block1,kids,ai,0.11,28606,MC,12,MC,MC,[],24,Yes,"I was confused at first by the prompts and felt like I was unsure of my answers. As I started to read them out loud, my answers felt more solidified in what I thought sounded correct or not.",Female,English,Safari,Mac,900,1440,10.9158,
1114,default,block1,pizza,ai,0.92,13197,MC,13,MC,MC,[],24,Yes,"I was confused at first by the prompts and felt like I was unsure of my answers. As I started to read them out loud, my answers felt more solidified in what I thought sounded correct or not.",Female,English,Safari,Mac,900,1440,10.9158,
1114,default,block1,muffins,ai,0.91,7382,MC,14,MC,MC,[],24,Yes,"I was confused at first by the prompts and felt like I was unsure of my answers. As I started to read them out loud, my answers felt more solidified in what I thought sounded correct or not.",Female,English,Safari,Mac,900,1440,10.9158,
1114,default,block1,danny,ai,0.92,16668,think,15,think,C,[],24,Yes,"I was confused at first by the prompts and felt like I was unsure of my answers. As I started to read them out loud, my answers felt more solidified in what I thought sounded correct or not.",Female,English,Safari,Mac,900,1440,10.9158,
1114,default,block1,hat,ai,0.96,7918,MC,16,MC,MC,[],24,Yes,"I was confused at first by the prompts and felt like I was unsure of my answers. As I started to read them out loud, my answers felt more solidified in what I thought sounded correct or not.",Female,English,Safari,Mac,900,1440,10.9158,
1114,default,block1,sophia,ai,0.09,21099,confirm,17,confirm,C,[],24,Yes,"I was confused at first by the prompts and felt like I was unsure of my answers. As I started to read them out loud, my answers felt more solidified in what I thought sounded correct or not.",Female,English,Safari,Mac,900,1440,10.9158,
1114,default,block1,zoe,ai,0.04,7704,demonstrate,18,demonstrate,C,[],24,Yes,"I was confused at first by the prompts and felt like I was unsure of my answers. As I started to read them out loud, my answers felt more solidified in what I thought sounded correct or not.",Female,English,Safari,Mac,900,1440,10.9158,
1114,default,block1,jayden,ai,0.04,15611,know,19,know,C,[],24,Yes,"I was confused at first by the prompts and felt like I was unsure of my answers. As I started to read them out loud, my answers felt more solidified in what I thought sounded correct or not.",Female,English,Safari,Mac,900,1440,10.9158,
1114,default,block1,frank,ai,0.95,7335,acknowledge,20,acknowledge,C,[],24,Yes,"I was confused at first by the prompts and felt like I was unsure of my answers. As I started to read them out loud, my answers felt more solidified in what I thought sounded correct or not.",Female,English,Safari,Mac,900,1440,10.9158,
1114,default,block1,owen,ai,0.05,6453,hear,21,hear,C,[],24,Yes,"I was confused at first by the prompts and felt like I was unsure of my answers. As I started to read them out loud, my answers felt more solidified in what I thought sounded correct or not.",Female,English,Safari,Mac,900,1440,10.9158,
1114,default,block1,tony,ai,0.02,6292,establish,22,establish,C,[],24,Yes,"I was confused at first by the prompts and felt like I was unsure of my answers. As I started to read them out loud, my answers felt more solidified in what I thought sounded correct or not.",Female,English,Safari,Mac,900,1440,10.9158,
1114,default,block1,emily,ai,0.06,7038,say,23,say,C,[],24,Yes,"I was confused at first by the prompts and felt like I was unsure of my answers. As I started to read them out loud, my answers felt more solidified in what I thought sounded correct or not.",Female,English,Safari,Mac,900,1440,10.9158,
1114,default,block1,julian,ai,0.03,10950,prove,24,prove,C,[],24,Yes,"I was confused at first by the prompts and felt like I was unsure of my answers. As I started to read them out loud, my answers felt more solidified in what I thought sounded correct or not.",Female,English,Safari,Mac,900,1440,10.9158,
1114,default,block1,jackson,ai,0.04,18195,pretend,25,pretend,C,[],24,Yes,"I was confused at first by the prompts and felt like I was unsure of my answers. As I started to read them out loud, my answers felt more solidified in what I thought sounded correct or not.",Female,English,Safari,Mac,900,1440,10.9158,
1114,default,block1,josie,ai,0.97,6852,be_annoyed,26,be_annoyed,C,[],24,Yes,"I was confused at first by the prompts and felt like I was unsure of my answers. As I started to read them out loud, my answers felt more solidified in what I thought sounded correct or not.",Female,English,Safari,Mac,900,1440,10.9158,
1114,default,block1,jon,ai,0.03,7856,be_right,27,be_right,C,[],24,Yes,"I was confused at first by the prompts and felt like I was unsure of my answers. As I started to read them out loud, my answers felt more solidified in what I thought sounded correct or not.",Female,English,Safari,Mac,900,1440,10.9158,
1114,default,block1,charley,ai,0.03,7386,suggest,28,suggest,C,[],24,Yes,"I was confused at first by the prompts and felt like I was unsure of my answers. As I started to read them out loud, my answers felt more solidified in what I thought sounded correct or not.",Female,English,Safari,Mac,900,1440,10.9158,
1114,default,block1,olivia,ai,0.03,6028,see,29,see,C,[],24,Yes,"I was confused at first by the prompts and felt like I was unsure of my answers. As I started to read them out loud, my answers felt more solidified in what I thought sounded correct or not.",Female,English,Safari,Mac,900,1440,10.9158,
1114,default,block1,mia,ai,0.03,9841,confess,30,confess,C,[],24,Yes,"I was confused at first by the prompts and felt like I was unsure of my answers. As I started to read them out loud, my answers felt more solidified in what I thought sounded correct or not.",Female,English,Safari,Mac,900,1440,10.9158,
1114,default,block2,jon,projective,0.28,17274,be_right,32,be_right,C,[],24,Yes,"I was confused at first by the prompts and felt like I was unsure of my answers. As I started to read them out loud, my answers felt more solidified in what I thought sounded correct or not.",Female,English,Safari,Mac,900,1440,10.9158,
1114,default,block2,owen,projective,0.34,16301,hear,33,hear,C,[],24,Yes,"I was confused at first by the prompts and felt like I was unsure of my answers. As I started to read them out loud, my answers felt more solidified in what I thought sounded correct or not.",Female,English,Safari,Mac,900,1440,10.9158,
1114,default,block2,josh,projective,0.23,7998,announce,34,announce,C,[],24,Yes,"I was confused at first by the prompts and felt like I was unsure of my answers. As I started to read them out loud, my answers felt more solidified in what I thought sounded correct or not.",Female,English,Safari,Mac,900,1440,10.9158,
1114,default,block2,emily,projective,0.72,13240,say,35,say,C,[],24,Yes,"I was confused at first by the prompts and felt like I was unsure of my answers. As I started to read them out loud, my answers felt more solidified in what I thought sounded correct or not.",Female,English,Safari,Mac,900,1440,10.9158,
1114,default,block2,grace,projective,0.83,7678,reveal,36,reveal,C,[],24,Yes,"I was confused at first by the prompts and felt like I was unsure of my answers. As I started to read them out loud, my answers felt more solidified in what I thought sounded correct or not.",Female,English,Safari,Mac,900,1440,10.9158,
1114,default,block2,hat,projective,0.89,5904,MC,37,MC,MC,[],24,Yes,"I was confused at first by the prompts and felt like I was unsure of my answers. As I started to read them out loud, my answers felt more solidified in what I thought sounded correct or not.",Female,English,Safari,Mac,900,1440,10.9158,
1114,default,block2,frank,projective,0.87,5179,acknowledge,38,acknowledge,C,[],24,Yes,"I was confused at first by the prompts and felt like I was unsure of my answers. As I started to read them out loud, my answers felt more solidified in what I thought sounded correct or not.",Female,English,Safari,Mac,900,1440,10.9158,
1114,default,block2,olivia,projective,0.7,10011,see,39,see,C,[],24,Yes,"I was confused at first by the prompts and felt like I was unsure of my answers. As I started to read them out loud, my answers felt more solidified in what I thought sounded correct or not.",Female,English,Safari,Mac,900,1440,10.9158,
1114,default,block2,danny,projective,0.16,5930,think,40,think,C,[],24,Yes,"I was confused at first by the prompts and felt like I was unsure of my answers. As I started to read them out loud, my answers felt more solidified in what I thought sounded correct or not.",Female,English,Safari,Mac,900,1440,10.9158,
1114,default,block2,mia,projective,0.74,11853,confess,41,confess,C,[],24,Yes,"I was confused at first by the prompts and felt like I was unsure of my answers. As I started to read them out loud, my answers felt more solidified in what I thought sounded correct or not.",Female,English,Safari,Mac,900,1440,10.9158,
1114,default,block2,sophia,projective,0.9,5086,confirm,42,confirm,C,[],24,Yes,"I was confused at first by the prompts and felt like I was unsure of my answers. As I started to read them out loud, my answers felt more solidified in what I thought sounded correct or not.",Female,English,Safari,Mac,900,1440,10.9158,
1114,default,block2,kids,projective,0.91,6008,MC,43,MC,MC,[],24,Yes,"I was confused at first by the prompts and felt like I was unsure of my answers. As I started to read them out loud, my answers felt more solidified in what I thought sounded correct or not.",Female,English,Safari,Mac,900,1440,10.9158,
1114,default,block2,jayden,projective,0.18,7541,know,44,know,C,[],24,Yes,"I was confused at first by the prompts and felt like I was unsure of my answers. As I started to read them out loud, my answers felt more solidified in what I thought sounded correct or not.",Female,English,Safari,Mac,900,1440,10.9158,
1114,default,block2,zoe,projective,0.85,7105,demonstrate,45,demonstrate,C,[],24,Yes,"I was confused at first by the prompts and felt like I was unsure of my answers. As I started to read them out loud, my answers felt more solidified in what I thought sounded correct or not.",Female,English,Safari,Mac,900,1440,10.9158,
1114,default,block2,josie,projective,0.94,8015,be_annoyed,46,be_annoyed,C,[],24,Yes,"I was confused at first by the prompts and felt like I was unsure of my answers. As I started to read them out loud, my answers felt more solidified in what I thought sounded correct or not.",Female,English,Safari,Mac,900,1440,10.9158,
1114,default,block2,emma,projective,0.97,15314,discover,47,discover,C,[],24,Yes,"I was confused at first by the prompts and felt like I was unsure of my answers. As I started to read them out loud, my answers felt more solidified in what I thought sounded correct or not.",Female,English,Safari,Mac,900,1440,10.9158,
1114,default,block2,jackson,projective,0.09,6164,pretend,48,pretend,C,[],24,Yes,"I was confused at first by the prompts and felt like I was unsure of my answers. As I started to read them out loud, my answers felt more solidified in what I thought sounded correct or not.",Female,English,Safari,Mac,900,1440,10.9158,
1114,default,block2,pizza,projective,0.97,4791,MC,49,MC,MC,[],24,Yes,"I was confused at first by the prompts and felt like I was unsure of my answers. As I started to read them out loud, my answers felt more solidified in what I thought sounded correct or not.",Female,English,Safari,Mac,900,1440,10.9158,
1114,default,block2,tony,projective,0.19,7414,establish,50,establish,C,[],24,Yes,"I was confused at first by the prompts and felt like I was unsure of my answers. As I started to read them out loud, my answers felt more solidified in what I thought sounded correct or not.",Female,English,Safari,Mac,900,1440,10.9158,
1114,default,block2,garage,projective,0.98,4974,MC,51,MC,MC,[],24,Yes,"I was confused at first by the prompts and felt like I was unsure of my answers. As I started to read them out loud, my answers felt more solidified in what I thought sounded correct or not.",Female,English,Safari,Mac,900,1440,10.9158,
1114,default,block2,isabella,projective,0.86,9492,admit,52,admit,C,[],24,Yes,"I was confused at first by the prompts and felt like I was unsure of my answers. As I started to read them out loud, my answers felt more solidified in what I thought sounded correct or not.",Female,English,Safari,Mac,900,1440,10.9158,
1114,default,block2,muffins,projective,0.96,4395,MC,53,MC,MC,[],24,Yes,"I was confused at first by the prompts and felt like I was unsure of my answers. As I started to read them out loud, my answers felt more solidified in what I thought sounded correct or not.",Female,English,Safari,Mac,900,1440,10.9158,
1114,default,block2,charley,projective,0.24,8327,suggest,54,suggest,C,[],24,Yes,"I was confused at first by the prompts and felt like I was unsure of my answers. As I started to read them out loud, my answers felt more solidified in what I thought sounded correct or not.",Female,English,Safari,Mac,900,1440,10.9158,
1114,default,block2,ballet,projective,0.96,3339,MC,55,MC,MC,[],24,Yes,"I was confused at first by the prompts and felt like I was unsure of my answers. As I started to read them out loud, my answers felt more solidified in what I thought sounded correct or not.",Female,English,Safari,Mac,900,1440,10.9158,
1114,default,block2,julian,projective,0.9,9056,prove,56,prove,C,[],24,Yes,"I was confused at first by the prompts and felt like I was unsure of my answers. As I started to read them out loud, my answers felt more solidified in what I thought sounded correct or not.",Female,English,Safari,Mac,900,1440,10.9158,
1114,default,block2,mary,projective,0.96,4841,inform,57,inform,C,[],24,Yes,"I was confused at first by the prompts and felt like I was unsure of my answers. As I started to read them out loud, my answers felt more solidified in what I thought sounded correct or not.",Female,English,Safari,Mac,900,1440,10.9158,
1121,default,block1,jackson,projective,0.99,33949,hear,5,hear,C,[],50,No,No,Male,English,Firefox,Windows,1080,1920,23.65855,
1121,default,block1,zoe,projective,0.98,31063,pretend,6,pretend,C,[],50,No,No,Male,English,Firefox,Windows,1080,1920,23.65855,
1121,default,block1,jon,projective,0.99,23464,demonstrate,7,demonstrate,C,[],50,No,No,Male,English,Firefox,Windows,1080,1920,23.65855,
1121,default,block1,mia,projective,0.98,24215,inform,8,inform,C,[],50,No,No,Male,English,Firefox,Windows,1080,1920,23.65855,
1121,default,block1,olivia,projective,0.02,19568,see,9,see,C,[],50,No,No,Male,English,Firefox,Windows,1080,1920,23.65855,
1121,default,block1,garage,projective,1,25975,MC,10,MC,MC,[],50,No,No,Male,English,Firefox,Windows,1080,1920,23.65855,
1121,default,block1,owen,projective,0.01,33279,reveal,11,reveal,C,[],50,No,No,Male,English,Firefox,Windows,1080,1920,23.65855,
1121,default,block1,sophia,projective,0.01,23177,think,12,think,C,[],50,No,No,Male,English,Firefox,Windows,1080,1920,23.65855,
1121,default,block1,ballet,projective,0.99,19654,MC,13,MC,MC,[],50,No,No,Male,English,Firefox,Windows,1080,1920,23.65855,
1121,default,block1,muffins,projective,0.99,23839,MC,14,MC,MC,[],50,No,No,Male,English,Firefox,Windows,1080,1920,23.65855,
1121,default,block1,danny,projective,0.02,14689,confirm,15,confirm,C,[],50,No,No,Male,English,Firefox,Windows,1080,1920,23.65855,
1121,default,block1,emily,projective,0.99,51532,admit,16,admit,C,[],50,No,No,Male,English,Firefox,Windows,1080,1920,23.65855,
1121,default,block1,isabella,projective,0.02,18042,be_annoyed,17,be_annoyed,C,[],50,No,No,Male,English,Firefox,Windows,1080,1920,23.65855,
1121,default,block1,josh,projective,0.99,15382,suggest,18,suggest,C,[],50,No,No,Male,English,Firefox,Windows,1080,1920,23.65855,
1121,default,block1,emma,projective,0.99,21767,confess,19,confess,C,[],50,No,No,Male,English,Firefox,Windows,1080,1920,23.65855,
1121,default,block1,charley,projective,0.01,22784,establish,20,establish,C,[],50,No,No,Male,English,Firefox,Windows,1080,1920,23.65855,
1121,default,block1,josie,projective,0.01,16711,announce,21,announce,C,[],50,No,No,Male,English,Firefox,Windows,1080,1920,23.65855,
1121,default,block1,hat,projective,1,17072,MC,22,MC,MC,[],50,No,No,Male,English,Firefox,Windows,1080,1920,23.65855,
1121,default,block1,julian,projective,0.98,25479,be_right,23,be_right,C,[],50,No,No,Male,English,Firefox,Windows,1080,1920,23.65855,
1121,default,block1,mary,projective,0.02,17568,discover,24,discover,C,[],50,No,No,Male,English,Firefox,Windows,1080,1920,23.65855,
1121,default,block1,tony,projective,0.99,24287,say,25,say,C,[],50,No,No,Male,English,Firefox,Windows,1080,1920,23.65855,
1121,default,block1,pizza,projective,0.03,18176,MC,26,MC,MC,[],50,No,No,Male,English,Firefox,Windows,1080,1920,23.65855,
1121,default,block1,kids,projective,1,20080,MC,27,MC,MC,[],50,No,No,Male,English,Firefox,Windows,1080,1920,23.65855,
1121,default,block1,jayden,projective,0.01,13150,know,28,know,C,[],50,No,No,Male,English,Firefox,Windows,1080,1920,23.65855,
1121,default,block1,grace,projective,0.99,16312,acknowledge,29,acknowledge,C,[],50,No,No,Male,English,Firefox,Windows,1080,1920,23.65855,
1121,default,block1,frank,projective,0.98,17799,prove,30,prove,C,[],50,No,No,Male,English,Firefox,Windows,1080,1920,23.65855,
1121,default,block2,jon,ai,0.03,33529,demonstrate,32,demonstrate,C,[],50,No,No,Male,English,Firefox,Windows,1080,1920,23.65855,
1121,default,block2,muffins,ai,0.02,19139,MC,33,MC,MC,[],50,No,No,Male,English,Firefox,Windows,1080,1920,23.65855,
1121,default,block2,zoe,ai,1,17466,pretend,34,pretend,C,[],50,No,No,Male,English,Firefox,Windows,1080,1920,23.65855,
1121,default,block2,mary,ai,1,17572,discover,35,discover,C,[],50,No,No,Male,English,Firefox,Windows,1080,1920,23.65855,
1121,default,block2,tony,ai,0.99,16784,say,36,say,C,[],50,No,No,Male,English,Firefox,Windows,1080,1920,23.65855,
1121,default,block2,danny,ai,0.99,17737,confirm,37,confirm,C,[],50,No,No,Male,English,Firefox,Windows,1080,1920,23.65855,
1121,default,block2,grace,ai,0,17681,acknowledge,38,acknowledge,C,[],50,No,No,Male,English,Firefox,Windows,1080,1920,23.65855,
1121,default,block2,charley,ai,0.98,16620,establish,39,establish,C,[],50,No,No,Male,English,Firefox,Windows,1080,1920,23.65855,
1121,default,block2,hat,ai,0.03,16864,MC,40,MC,MC,[],50,No,No,Male,English,Firefox,Windows,1080,1920,23.65855,
1121,default,block2,emma,ai,0.02,25471,confess,41,confess,C,[],50,No,No,Male,English,Firefox,Windows,1080,1920,23.65855,
1121,default,block2,jayden,ai,0.99,18633,know,42,know,C,[],50,No,No,Male,English,Firefox,Windows,1080,1920,23.65855,
1121,default,block2,isabella,ai,0.98,19575,be_annoyed,43,be_annoyed,C,[],50,No,No,Male,English,Firefox,Windows,1080,1920,23.65855,
1121,default,block2,frank,ai,0.99,15881,prove,44,prove,C,[],50,No,No,Male,English,Firefox,Windows,1080,1920,23.65855,
1121,default,block2,emily,ai,0.99,17152,admit,45,admit,C,[],50,No,No,Male,English,Firefox,Windows,1080,1920,23.65855,
1121,default,block2,owen,ai,1,18285,reveal,46,reveal,C,[],50,No,No,Male,English,Firefox,Windows,1080,1920,23.65855,
1121,default,block2,garage,ai,0.01,17816,MC,47,MC,MC,[],50,No,No,Male,English,Firefox,Windows,1080,1920,23.65855,
1121,default,block2,josie,ai,0.02,20264,announce,48,announce,C,[],50,No,No,Male,English,Firefox,Windows,1080,1920,23.65855,
1121,default,block2,pizza,ai,0.02,28250,MC,49,MC,MC,[],50,No,No,Male,English,Firefox,Windows,1080,1920,23.65855,
1121,default,block2,ballet,ai,0.03,17781,MC,50,MC,MC,[],50,No,No,Male,English,Firefox,Windows,1080,1920,23.65855,
1121,default,block2,julian,ai,0.01,29389,be_right,51,be_right,C,[],50,No,No,Male,English,Firefox,Windows,1080,1920,23.65855,
1121,default,block2,mia,ai,0.99,16766,inform,52,inform,C,[],50,No,No,Male,English,Firefox,Windows,1080,1920,23.65855,
1121,default,block2,olivia,ai,0.99,26864,see,53,see,C,[],50,No,No,Male,English,Firefox,Windows,1080,1920,23.65855,
1121,default,block2,sophia,ai,0.99,26543,think,54,think,C,[],50,No,No,Male,English,Firefox,Windows,1080,1920,23.65855,
1121,default,block2,kids,ai,0.01,24031,MC,55,MC,MC,[],50,No,No,Male,English,Firefox,Windows,1080,1920,23.65855,
1121,default,block2,josh,ai,1,27232,suggest,56,suggest,C,[],50,No,No,Male,English,Firefox,Windows,1080,1920,23.65855,
1121,default,block2,jackson,ai,0.99,23184,hear,57,hear,C,[],50,No,No,Male,English,Firefox,Windows,1080,1920,23.65855,
1116,default,block1,hat,ai,0.75,59404,MC,5,MC,MC,[],50,No,,Male,ENGLISH,Firefox,Windows,900,1600,25.694933333333335,
1116,default,block1,garage,ai,0.39,31238,MC,6,MC,MC,[],50,No,,Male,ENGLISH,Firefox,Windows,900,1600,25.694933333333335,
1116,default,block1,jackson,ai,0.98,40735,confess,7,confess,C,[],50,No,,Male,ENGLISH,Firefox,Windows,900,1600,25.694933333333335,
1116,default,block1,grace,ai,0.53,41887,admit,8,admit,C,[],50,No,,Male,ENGLISH,Firefox,Windows,900,1600,25.694933333333335,
1116,default,block1,danny,ai,0.51,81406,establish,9,establish,C,[],50,No,,Male,ENGLISH,Firefox,Windows,900,1600,25.694933333333335,
1116,default,block1,sophia,ai,0.51,69564,say,10,say,C,[],50,No,,Male,ENGLISH,Firefox,Windows,900,1600,25.694933333333335,
1116,default,block1,josie,ai,0.69,39299,know,11,know,C,[],50,No,,Male,ENGLISH,Firefox,Windows,900,1600,25.694933333333335,
1116,default,block1,emma,ai,0.68,17827,acknowledge,12,acknowledge,C,[],50,No,,Male,ENGLISH,Firefox,Windows,900,1600,25.694933333333335,
1116,default,block1,julian,ai,0.75,41390,see,13,see,C,[],50,No,,Male,ENGLISH,Firefox,Windows,900,1600,25.694933333333335,
1116,default,block1,zoe,ai,0.32,18858,demonstrate,14,demonstrate,C,[],50,No,,Male,ENGLISH,Firefox,Windows,900,1600,25.694933333333335,
1116,default,block1,ballet,ai,0.54,19544,MC,15,MC,MC,[],50,No,,Male,ENGLISH,Firefox,Windows,900,1600,25.694933333333335,
1116,default,block1,owen,ai,0.52,33545,pretend,16,pretend,C,[],50,No,,Male,ENGLISH,Firefox,Windows,900,1600,25.694933333333335,
1116,default,block1,muffins,ai,0.52,32529,MC,17,MC,MC,[],50,No,,Male,ENGLISH,Firefox,Windows,900,1600,25.694933333333335,
1116,default,block1,emily,ai,0.64,97506,announce,18,announce,C,[],50,No,,Male,ENGLISH,Firefox,Windows,900,1600,25.694933333333335,
1116,default,block1,kids,ai,0.48,64474,MC,19,MC,MC,[],50,No,,Male,ENGLISH,Firefox,Windows,900,1600,25.694933333333335,
1116,default,block1,olivia,ai,0.43,110917,inform,20,inform,C,[],50,No,,Male,ENGLISH,Firefox,Windows,900,1600,25.694933333333335,
1116,default,block1,tony,ai,0.64,25578,discover,21,discover,C,[],50,No,,Male,ENGLISH,Firefox,Windows,900,1600,25.694933333333335,
1116,default,block1,jon,ai,0.41,40631,reveal,22,reveal,C,[],50,No,,Male,ENGLISH,Firefox,Windows,900,1600,25.694933333333335,
1116,default,block1,mary,ai,0.49,27968,be_annoyed,23,be_annoyed,C,[],50,No,,Male,ENGLISH,Firefox,Windows,900,1600,25.694933333333335,
1116,default,block1,josh,ai,0.34,66077,be_right,24,be_right,C,[],50,No,,Male,ENGLISH,Firefox,Windows,900,1600,25.694933333333335,
1116,default,block1,frank,ai,0.52,55930,prove,25,prove,C,[],50,No,,Male,ENGLISH,Firefox,Windows,900,1600,25.694933333333335,
1116,default,block1,mia,ai,0.4,3864,suggest,26,suggest,C,[],50,No,,Male,ENGLISH,Firefox,Windows,900,1600,25.694933333333335,
1116,default,block1,charley,ai,0.62,2026,think,27,think,C,[],50,No,,Male,ENGLISH,Firefox,Windows,900,1600,25.694933333333335,
1116,default,block1,pizza,ai,0.53,2286,MC,28,MC,MC,[],50,No,,Male,ENGLISH,Firefox,Windows,900,1600,25.694933333333335,
1116,default,block1,isabella,ai,0.75,1821,confirm,29,confirm,C,[],50,No,,Male,ENGLISH,Firefox,Windows,900,1600,25.694933333333335,
1116,default,block1,jayden,ai,0.34,2854,hear,30,hear,C,[],50,No,,Male,ENGLISH,Firefox,Windows,900,1600,25.694933333333335,
1116,default,block2,danny,projective,0.57,17088,establish,32,establish,C,[],50,No,,Male,ENGLISH,Firefox,Windows,900,1600,25.694933333333335,
1116,default,block2,tony,projective,0.34,30847,discover,33,discover,C,[],50,No,,Male,ENGLISH,Firefox,Windows,900,1600,25.694933333333335,
1116,default,block2,josh,projective,0.63,16544,be_right,34,be_right,C,[],50,No,,Male,ENGLISH,Firefox,Windows,900,1600,25.694933333333335,
1116,default,block2,mary,projective,0.82,12506,be_annoyed,35,be_annoyed,C,[],50,No,,Male,ENGLISH,Firefox,Windows,900,1600,25.694933333333335,
1116,default,block2,frank,projective,0.65,49234,prove,36,prove,C,[],50,No,,Male,ENGLISH,Firefox,Windows,900,1600,25.694933333333335,
1116,default,block2,sophia,projective,0.72,17344,say,37,say,C,[],50,No,,Male,ENGLISH,Firefox,Windows,900,1600,25.694933333333335,
1116,default,block2,kids,projective,0.76,23516,MC,38,MC,MC,[],50,No,,Male,ENGLISH,Firefox,Windows,900,1600,25.694933333333335,
1116,default,block2,olivia,projective,0.76,19588,inform,39,inform,C,[],50,No,,Male,ENGLISH,Firefox,Windows,900,1600,25.694933333333335,
1116,default,block2,emma,projective,0.83,3320,acknowledge,40,acknowledge,C,[],50,No,,Male,ENGLISH,Firefox,Windows,900,1600,25.694933333333335,
1116,default,block2,emily,projective,0.7,4015,announce,41,announce,C,[],50,No,,Male,ENGLISH,Firefox,Windows,900,1600,25.694933333333335,
1116,default,block2,zoe,projective,0.8,1531,demonstrate,42,demonstrate,C,[],50,No,,Male,ENGLISH,Firefox,Windows,900,1600,25.694933333333335,
1116,default,block2,pizza,projective,0.54,2493,MC,43,MC,MC,[],50,No,,Male,ENGLISH,Firefox,Windows,900,1600,25.694933333333335,
1116,default,block2,charley,projective,0.75,2011,think,44,think,C,[],50,No,,Male,ENGLISH,Firefox,Windows,900,1600,25.694933333333335,
1116,default,block2,ballet,projective,0.6,1626,MC,45,MC,MC,[],50,No,,Male,ENGLISH,Firefox,Windows,900,1600,25.694933333333335,
1116,default,block2,grace,projective,0.77,2011,admit,46,admit,C,[],50,No,,Male,ENGLISH,Firefox,Windows,900,1600,25.694933333333335,
1116,default,block2,josie,projective,0.81,1459,know,47,know,C,[],50,No,,Male,ENGLISH,Firefox,Windows,900,1600,25.694933333333335,
1116,default,block2,muffins,projective,0.89,1736,MC,48,MC,MC,[],50,No,,Male,ENGLISH,Firefox,Windows,900,1600,25.694933333333335,
1116,default,block2,hat,projective,0.66,1648,MC,49,MC,MC,[],50,No,,Male,ENGLISH,Firefox,Windows,900,1600,25.694933333333335,
1116,default,block2,jon,projective,0.64,1136,reveal,50,reveal,C,[],50,No,,Male,ENGLISH,Firefox,Windows,900,1600,25.694933333333335,
1116,default,block2,isabella,projective,0.77,1437,confirm,51,confirm,C,[],50,No,,Male,ENGLISH,Firefox,Windows,900,1600,25.694933333333335,
1116,default,block2,mia,projective,0.48,2358,suggest,52,suggest,C,[],50,No,,Male,ENGLISH,Firefox,Windows,900,1600,25.694933333333335,
1116,default,block2,owen,projective,0.71,1254,pretend,53,pretend,C,[],50,No,,Male,ENGLISH,Firefox,Windows,900,1600,25.694933333333335,
1116,default,block2,jackson,projective,0.56,1033,confess,54,confess,C,[],50,No,,Male,ENGLISH,Firefox,Windows,900,1600,25.694933333333335,
1116,default,block2,garage,projective,0.53,2911,MC,55,MC,MC,[],50,No,,Male,ENGLISH,Firefox,Windows,900,1600,25.694933333333335,
1116,default,block2,jayden,projective,0.47,1697,hear,56,hear,C,[],50,No,,Male,ENGLISH,Firefox,Windows,900,1600,25.694933333333335,
1116,default,block2,julian,projective,0.56,1142,see,57,see,C,[],50,No,,Male,ENGLISH,Firefox,Windows,900,1600,25.694933333333335,
1113,default,block1,zoe,projective,0.41,13170,prove,5,prove,C,[],38,Yes,,Female,English,Chrome,Windows,1080,1920,5.597683333333333,
1113,default,block1,jackson,projective,0.22,10071,establish,6,establish,C,[],38,Yes,,Female,English,Chrome,Windows,1080,1920,5.597683333333333,
1113,default,block1,garage,projective,1,5627,MC,7,MC,MC,[],38,Yes,,Female,English,Chrome,Windows,1080,1920,5.597683333333333,
1113,default,block1,danny,projective,0.18,7650,confess,8,confess,C,[],38,Yes,,Female,English,Chrome,Windows,1080,1920,5.597683333333333,
1113,default,block1,charley,projective,0.19,4451,think,9,think,C,[],38,Yes,,Female,English,Chrome,Windows,1080,1920,5.597683333333333,
1113,default,block1,muffins,projective,1,3840,MC,10,MC,MC,[],38,Yes,,Female,English,Chrome,Windows,1080,1920,5.597683333333333,
1113,default,block1,ballet,projective,0.99,5945,MC,11,MC,MC,[],38,Yes,,Female,English,Chrome,Windows,1080,1920,5.597683333333333,
1113,default,block1,hat,projective,0.98,4543,MC,12,MC,MC,[],38,Yes,,Female,English,Chrome,Windows,1080,1920,5.597683333333333,
1113,default,block1,josh,projective,0.07,4490,discover,13,discover,C,[],38,Yes,,Female,English,Chrome,Windows,1080,1920,5.597683333333333,
1113,default,block1,jayden,projective,0.08,4305,confirm,14,confirm,C,[],38,Yes,,Female,English,Chrome,Windows,1080,1920,5.597683333333333,
1113,default,block1,pizza,projective,0.97,4312,MC,15,MC,MC,[],38,Yes,,Female,English,Chrome,Windows,1080,1920,5.597683333333333,
1113,default,block1,mia,projective,0.1,5016,know,16,know,C,[],38,Yes,,Female,English,Chrome,Windows,1080,1920,5.597683333333333,
1113,default,block1,owen,projective,0.1,6030,announce,17,announce,C,[],38,Yes,,Female,English,Chrome,Windows,1080,1920,5.597683333333333,
1113,default,block1,tony,projective,0.3,9136,reveal,18,reveal,C,[],38,Yes,,Female,English,Chrome,Windows,1080,1920,5.597683333333333,
1113,default,block1,emma,projective,0.14,11024,pretend,19,pretend,C,[],38,Yes,,Female,English,Chrome,Windows,1080,1920,5.597683333333333,
1113,default,block1,frank,projective,0.46,8043,be_right,20,be_right,C,[],38,Yes,,Female,English,Chrome,Windows,1080,1920,5.597683333333333,
1113,default,block1,josie,projective,0.38,3941,say,21,say,C,[],38,Yes,,Female,English,Chrome,Windows,1080,1920,5.597683333333333,
1113,default,block1,isabella,projective,0.57,5057,hear,22,hear,C,[],38,Yes,,Female,English,Chrome,Windows,1080,1920,5.597683333333333,
1113,default,block1,kids,projective,0.98,4134,MC,23,MC,MC,[],38,Yes,,Female,English,Chrome,Windows,1080,1920,5.597683333333333,
1113,default,block1,grace,projective,0.51,6604,see,24,see,C,[],38,Yes,,Female,English,Chrome,Windows,1080,1920,5.597683333333333,
1113,default,block1,jon,projective,0.19,3724,be_annoyed,25,be_annoyed,C,[],38,Yes,,Female,English,Chrome,Windows,1080,1920,5.597683333333333,
1113,default,block1,mary,projective,0.13,4026,acknowledge,26,acknowledge,C,[],38,Yes,,Female,English,Chrome,Windows,1080,1920,5.597683333333333,
1113,default,block1,olivia,projective,0.09,2531,suggest,27,suggest,C,[],38,Yes,,Female,English,Chrome,Windows,1080,1920,5.597683333333333,
1113,default,block1,emily,projective,0.04,4259,inform,28,inform,C,[],38,Yes,,Female,English,Chrome,Windows,1080,1920,5.597683333333333,
1113,default,block1,sophia,projective,0.07,3327,admit,29,admit,C,[],38,Yes,,Female,English,Chrome,Windows,1080,1920,5.597683333333333,
1113,default,block1,julian,projective,0.13,2843,demonstrate,30,demonstrate,C,[],38,Yes,,Female,English,Chrome,Windows,1080,1920,5.597683333333333,
1113,default,block2,jackson,ai,0.08,11392,establish,32,establish,C,[],38,Yes,,Female,English,Chrome,Windows,1080,1920,5.597683333333333,
1113,default,block2,hat,ai,0.08,5759,MC,33,MC,MC,[],38,Yes,,Female,English,Chrome,Windows,1080,1920,5.597683333333333,
1113,default,block2,owen,ai,0.86,5962,announce,34,announce,C,[],38,Yes,,Female,English,Chrome,Windows,1080,1920,5.597683333333333,
1113,default,block2,grace,ai,0.12,5783,see,35,see,C,[],38,Yes,,Female,English,Chrome,Windows,1080,1920,5.597683333333333,
1113,default,block2,zoe,ai,0.52,7989,prove,36,prove,C,[],38,Yes,,Female,English,Chrome,Windows,1080,1920,5.597683333333333,
1113,default,block2,danny,ai,0.29,5706,confess,37,confess,C,[],38,Yes,,Female,English,Chrome,Windows,1080,1920,5.597683333333333,
1113,default,block2,emily,ai,0.26,4134,inform,38,inform,C,[],38,Yes,,Female,English,Chrome,Windows,1080,1920,5.597683333333333,
1113,default,block2,kids,ai,0.91,6549,MC,39,MC,MC,[],38,Yes,,Female,English,Chrome,Windows,1080,1920,5.597683333333333,
1113,default,block2,mia,ai,0.23,4025,know,40,know,C,[],38,Yes,,Female,English,Chrome,Windows,1080,1920,5.597683333333333,
1113,default,block2,isabella,ai,0.25,3422,hear,41,hear,C,[],38,Yes,,Female,English,Chrome,Windows,1080,1920,5.597683333333333,
1113,default,block2,emma,ai,0.21,3321,pretend,42,pretend,C,[],38,Yes,,Female,English,Chrome,Windows,1080,1920,5.597683333333333,
1113,default,block2,tony,ai,0.17,3353,reveal,43,reveal,C,[],38,Yes,,Female,English,Chrome,Windows,1080,1920,5.597683333333333,
1113,default,block2,mary,ai,0.14,3359,acknowledge,44,acknowledge,C,[],38,Yes,,Female,English,Chrome,Windows,1080,1920,5.597683333333333,
1113,default,block2,jon,ai,0.09,5211,be_annoyed,45,be_annoyed,C,[],38,Yes,,Female,English,Chrome,Windows,1080,1920,5.597683333333333,
1113,default,block2,garage,ai,0.12,4436,MC,46,MC,MC,[],38,Yes,,Female,English,Chrome,Windows,1080,1920,5.597683333333333,
1113,default,block2,olivia,ai,0.13,4490,suggest,47,suggest,C,[],38,Yes,,Female,English,Chrome,Windows,1080,1920,5.597683333333333,
1113,default,block2,ballet,ai,0.08,3651,MC,48,MC,MC,[],38,Yes,,Female,English,Chrome,Windows,1080,1920,5.597683333333333,
1113,default,block2,muffins,ai,0.7,6094,MC,49,MC,MC,[],38,Yes,,Female,English,Chrome,Windows,1080,1920,5.597683333333333,
1113,default,block2,julian,ai,0.18,3498,demonstrate,50,demonstrate,C,[],38,Yes,,Female,English,Chrome,Windows,1080,1920,5.597683333333333,
1113,default,block2,jayden,ai,0.15,5876,confirm,51,confirm,C,[],38,Yes,,Female,English,Chrome,Windows,1080,1920,5.597683333333333,
1113,default,block2,josh,ai,0.16,3646,discover,52,discover,C,[],38,Yes,,Female,English,Chrome,Windows,1080,1920,5.597683333333333,
1113,default,block2,josie,ai,0.19,5048,say,53,say,C,[],38,Yes,,Female,English,Chrome,Windows,1080,1920,5.597683333333333,
1113,default,block2,pizza,ai,0.7,5907,MC,54,MC,MC,[],38,Yes,,Female,English,Chrome,Windows,1080,1920,5.597683333333333,
1113,default,block2,sophia,ai,0.29,3118,admit,55,admit,C,[],38,Yes,,Female,English,Chrome,Windows,1080,1920,5.597683333333333,
1113,default,block2,charley,ai,0.22,6434,think,56,think,C,[],38,Yes,,Female,English,Chrome,Windows,1080,1920,5.597683333333333,
1113,default,block2,frank,ai,0.15,3856,be_right,57,be_right,C,[],38,Yes,,Female,English,Chrome,Windows,1080,1920,5.597683333333333,
1123,default,block1,jon,projective,0.77,13223,discover,5,discover,C,[],26,Yes,The 'sound good' was extremely confusing. I did not understand the intent 'sound good' was supposed to have on how I was to answer the 2nd half. Poorly worded.,Male,English,Chrome,Windows,768,1366,4.7146333333333335,
1123,default,block1,kids,projective,1,8352,MC,6,MC,MC,[],26,Yes,The 'sound good' was extremely confusing. I did not understand the intent 'sound good' was supposed to have on how I was to answer the 2nd half. Poorly worded.,Male,English,Chrome,Windows,768,1366,4.7146333333333335,
1123,default,block1,owen,projective,0.16,6418,think,7,think,C,[],26,Yes,The 'sound good' was extremely confusing. I did not understand the intent 'sound good' was supposed to have on how I was to answer the 2nd half. Poorly worded.,Male,English,Chrome,Windows,768,1366,4.7146333333333335,
1123,default,block1,mia,projective,0.23,7626,hear,8,hear,C,[],26,Yes,The 'sound good' was extremely confusing. I did not understand the intent 'sound good' was supposed to have on how I was to answer the 2nd half. Poorly worded.,Male,English,Chrome,Windows,768,1366,4.7146333333333335,
1123,default,block1,emma,projective,0.21,10694,suggest,9,suggest,C,[],26,Yes,The 'sound good' was extremely confusing. I did not understand the intent 'sound good' was supposed to have on how I was to answer the 2nd half. Poorly worded.,Male,English,Chrome,Windows,768,1366,4.7146333333333335,
1123,default,block1,garage,projective,1,7170,MC,10,MC,MC,[],26,Yes,The 'sound good' was extremely confusing. I did not understand the intent 'sound good' was supposed to have on how I was to answer the 2nd half. Poorly worded.,Male,English,Chrome,Windows,768,1366,4.7146333333333335,
1123,default,block1,isabella,projective,0.21,8004,confirm,11,confirm,C,[],26,Yes,The 'sound good' was extremely confusing. I did not understand the intent 'sound good' was supposed to have on how I was to answer the 2nd half. Poorly worded.,Male,English,Chrome,Windows,768,1366,4.7146333333333335,
1123,default,block1,emily,projective,0.25,6580,pretend,12,pretend,C,[],26,Yes,The 'sound good' was extremely confusing. I did not understand the intent 'sound good' was supposed to have on how I was to answer the 2nd half. Poorly worded.,Male,English,Chrome,Windows,768,1366,4.7146333333333335,
1123,default,block1,charley,projective,0.19,6064,establish,13,establish,C,[],26,Yes,The 'sound good' was extremely confusing. I did not understand the intent 'sound good' was supposed to have on how I was to answer the 2nd half. Poorly worded.,Male,English,Chrome,Windows,768,1366,4.7146333333333335,
1123,default,block1,jackson,projective,0.21,2166,acknowledge,14,acknowledge,C,[],26,Yes,The 'sound good' was extremely confusing. I did not understand the intent 'sound good' was supposed to have on how I was to answer the 2nd half. Poorly worded.,Male,English,Chrome,Windows,768,1366,4.7146333333333335,
1123,default,block1,hat,projective,1,3656,MC,15,MC,MC,[],26,Yes,The 'sound good' was extremely confusing. I did not understand the intent 'sound good' was supposed to have on how I was to answer the 2nd half. Poorly worded.,Male,English,Chrome,Windows,768,1366,4.7146333333333335,
1123,default,block1,olivia,projective,0.2,6822,know,16,know,C,[],26,Yes,The 'sound good' was extremely confusing. I did not understand the intent 'sound good' was supposed to have on how I was to answer the 2nd half. Poorly worded.,Male,English,Chrome,Windows,768,1366,4.7146333333333335,
1123,default,block1,mary,projective,0.24,3048,announce,17,announce,C,[],26,Yes,The 'sound good' was extremely confusing. I did not understand the intent 'sound good' was supposed to have on how I was to answer the 2nd half. Poorly worded.,Male,English,Chrome,Windows,768,1366,4.7146333333333335,
1123,default,block1,josie,projective,0.2,4840,reveal,18,reveal,C,[],26,Yes,The 'sound good' was extremely confusing. I did not understand the intent 'sound good' was supposed to have on how I was to answer the 2nd half. Poorly worded.,Male,English,Chrome,Windows,768,1366,4.7146333333333335,
1123,default,block1,sophia,projective,0.2,2593,be_annoyed,19,be_annoyed,C,[],26,Yes,The 'sound good' was extremely confusing. I did not understand the intent 'sound good' was supposed to have on how I was to answer the 2nd half. Poorly worded.,Male,English,Chrome,Windows,768,1366,4.7146333333333335,
1123,default,block1,josh,projective,0.19,2969,be_right,20,be_right,C,[],26,Yes,The 'sound good' was extremely confusing. I did not understand the intent 'sound good' was supposed to have on how I was to answer the 2nd half. Poorly worded.,Male,English,Chrome,Windows,768,1366,4.7146333333333335,
1123,default,block1,grace,projective,0.23,5895,inform,21,inform,C,[],26,Yes,The 'sound good' was extremely confusing. I did not understand the intent 'sound good' was supposed to have on how I was to answer the 2nd half. Poorly worded.,Male,English,Chrome,Windows,768,1366,4.7146333333333335,
1123,default,block1,danny,projective,0.09,4699,say,22,say,C,[],26,Yes,The 'sound good' was extremely confusing. I did not understand the intent 'sound good' was supposed to have on how I was to answer the 2nd half. Poorly worded.,Male,English,Chrome,Windows,768,1366,4.7146333333333335,
1123,default,block1,zoe,projective,0.16,3620,prove,23,prove,C,[],26,Yes,The 'sound good' was extremely confusing. I did not understand the intent 'sound good' was supposed to have on how I was to answer the 2nd half. Poorly worded.,Male,English,Chrome,Windows,768,1366,4.7146333333333335,
1123,default,block1,jayden,projective,0.2,8098,see,24,see,C,[],26,Yes,The 'sound good' was extremely confusing. I did not understand the intent 'sound good' was supposed to have on how I was to answer the 2nd half. Poorly worded.,Male,English,Chrome,Windows,768,1366,4.7146333333333335,
1123,default,block1,pizza,projective,0.97,3210,MC,25,MC,MC,[],26,Yes,The 'sound good' was extremely confusing. I did not understand the intent 'sound good' was supposed to have on how I was to answer the 2nd half. Poorly worded.,Male,English,Chrome,Windows,768,1366,4.7146333333333335,
1123,default,block1,frank,projective,0.16,1718,demonstrate,26,demonstrate,C,[],26,Yes,The 'sound good' was extremely confusing. I did not understand the intent 'sound good' was supposed to have on how I was to answer the 2nd half. Poorly worded.,Male,English,Chrome,Windows,768,1366,4.7146333333333335,
1123,default,block1,julian,projective,0.2,1314,admit,27,admit,C,[],26,Yes,The 'sound good' was extremely confusing. I did not understand the intent 'sound good' was supposed to have on how I was to answer the 2nd half. Poorly worded.,Male,English,Chrome,Windows,768,1366,4.7146333333333335,
1123,default,block1,muffins,projective,1,4594,MC,28,MC,MC,[],26,Yes,The 'sound good' was extremely confusing. I did not understand the intent 'sound good' was supposed to have on how I was to answer the 2nd half. Poorly worded.,Male,English,Chrome,Windows,768,1366,4.7146333333333335,
1123,default,block1,tony,projective,0.15,2908,confess,29,confess,C,[],26,Yes,The 'sound good' was extremely confusing. I did not understand the intent 'sound good' was supposed to have on how I was to answer the 2nd half. Poorly worded.,Male,English,Chrome,Windows,768,1366,4.7146333333333335,
1123,default,block1,ballet,projective,1,6612,MC,30,MC,MC,[],26,Yes,The 'sound good' was extremely confusing. I did not understand the intent 'sound good' was supposed to have on how I was to answer the 2nd half. Poorly worded.,Male,English,Chrome,Windows,768,1366,4.7146333333333335,
1123,default,block2,muffins,ai,0.47,15459,MC,32,MC,MC,[],26,Yes,The 'sound good' was extremely confusing. I did not understand the intent 'sound good' was supposed to have on how I was to answer the 2nd half. Poorly worded.,Male,English,Chrome,Windows,768,1366,4.7146333333333335,
1123,default,block2,olivia,ai,0.16,16612,know,33,know,C,[],26,Yes,The 'sound good' was extremely confusing. I did not understand the intent 'sound good' was supposed to have on how I was to answer the 2nd half. Poorly worded.,Male,English,Chrome,Windows,768,1366,4.7146333333333335,
1123,default,block2,garage,ai,0.83,6758,MC,34,MC,MC,[],26,Yes,The 'sound good' was extremely confusing. I did not understand the intent 'sound good' was supposed to have on how I was to answer the 2nd half. Poorly worded.,Male,English,Chrome,Windows,768,1366,4.7146333333333335,
1123,default,block2,zoe,ai,0.83,1336,prove,35,prove,C,[],26,Yes,The 'sound good' was extremely confusing. I did not understand the intent 'sound good' was supposed to have on how I was to answer the 2nd half. Poorly worded.,Male,English,Chrome,Windows,768,1366,4.7146333333333335,
1123,default,block2,charley,ai,0.19,976,establish,36,establish,C,[],26,Yes,The 'sound good' was extremely confusing. I did not understand the intent 'sound good' was supposed to have on how I was to answer the 2nd half. Poorly worded.,Male,English,Chrome,Windows,768,1366,4.7146333333333335,
1123,default,block2,frank,ai,0.24,835,demonstrate,37,demonstrate,C,[],26,Yes,The 'sound good' was extremely confusing. I did not understand the intent 'sound good' was supposed to have on how I was to answer the 2nd half. Poorly worded.,Male,English,Chrome,Windows,768,1366,4.7146333333333335,
1123,default,block2,jon,ai,0.19,818,discover,38,discover,C,[],26,Yes,The 'sound good' was extremely confusing. I did not understand the intent 'sound good' was supposed to have on how I was to answer the 2nd half. Poorly worded.,Male,English,Chrome,Windows,768,1366,4.7146333333333335,
1123,default,block2,ballet,ai,0.89,1058,MC,39,MC,MC,[],26,Yes,The 'sound good' was extremely confusing. I did not understand the intent 'sound good' was supposed to have on how I was to answer the 2nd half. Poorly worded.,Male,English,Chrome,Windows,768,1366,4.7146333333333335,
1123,default,block2,josie,ai,0.24,1014,reveal,40,reveal,C,[],26,Yes,The 'sound good' was extremely confusing. I did not understand the intent 'sound good' was supposed to have on how I was to answer the 2nd half. Poorly worded.,Male,English,Chrome,Windows,768,1366,4.7146333333333335,
1123,default,block2,danny,ai,0.15,1546,say,41,say,C,[],26,Yes,The 'sound good' was extremely confusing. I did not understand the intent 'sound good' was supposed to have on how I was to answer the 2nd half. Poorly worded.,Male,English,Chrome,Windows,768,1366,4.7146333333333335,
1123,default,block2,kids,ai,0.84,1384,MC,42,MC,MC,[],26,Yes,The 'sound good' was extremely confusing. I did not understand the intent 'sound good' was supposed to have on how I was to answer the 2nd half. Poorly worded.,Male,English,Chrome,Windows,768,1366,4.7146333333333335,
1123,default,block2,isabella,ai,0.84,1106,confirm,43,confirm,C,[],26,Yes,The 'sound good' was extremely confusing. I did not understand the intent 'sound good' was supposed to have on how I was to answer the 2nd half. Poorly worded.,Male,English,Chrome,Windows,768,1366,4.7146333333333335,
1123,default,block2,hat,ai,0.14,1098,MC,44,MC,MC,[],26,Yes,The 'sound good' was extremely confusing. I did not understand the intent 'sound good' was supposed to have on how I was to answer the 2nd half. Poorly worded.,Male,English,Chrome,Windows,768,1366,4.7146333333333335,
1123,default,block2,jackson,ai,0.14,887,acknowledge,45,acknowledge,C,[],26,Yes,The 'sound good' was extremely confusing. I did not understand the intent 'sound good' was supposed to have on how I was to answer the 2nd half. Poorly worded.,Male,English,Chrome,Windows,768,1366,4.7146333333333335,
1123,default,block2,mia,ai,0.15,874,hear,46,hear,C,[],26,Yes,The 'sound good' was extremely confusing. I did not understand the intent 'sound good' was supposed to have on how I was to answer the 2nd half. Poorly worded.,Male,English,Chrome,Windows,768,1366,4.7146333333333335,
1123,default,block2,emma,ai,0.85,973,suggest,47,suggest,C,[],26,Yes,The 'sound good' was extremely confusing. I did not understand the intent 'sound good' was supposed to have on how I was to answer the 2nd half. Poorly worded.,Male,English,Chrome,Windows,768,1366,4.7146333333333335,
1123,default,block2,mary,ai,0.84,1338,announce,48,announce,C,[],26,Yes,The 'sound good' was extremely confusing. I did not understand the intent 'sound good' was supposed to have on how I was to answer the 2nd half. Poorly worded.,Male,English,Chrome,Windows,768,1366,4.7146333333333335,
1123,default,block2,sophia,ai,0.84,928,be_annoyed,49,be_annoyed,C,[],26,Yes,The 'sound good' was extremely confusing. I did not understand the intent 'sound good' was supposed to have on how I was to answer the 2nd half. Poorly worded.,Male,English,Chrome,Windows,768,1366,4.7146333333333335,
1123,default,block2,jayden,ai,0.21,1058,see,50,see,C,[],26,Yes,The 'sound good' was extremely confusing. I did not understand the intent 'sound good' was supposed to have on how I was to answer the 2nd half. Poorly worded.,Male,English,Chrome,Windows,768,1366,4.7146333333333335,
1123,default,block2,owen,ai,0.18,1570,think,51,think,C,[],26,Yes,The 'sound good' was extremely confusing. I did not understand the intent 'sound good' was supposed to have on how I was to answer the 2nd half. Poorly worded.,Male,English,Chrome,Windows,768,1366,4.7146333333333335,
1123,default,block2,pizza,ai,0.85,898,MC,52,MC,MC,[],26,Yes,The 'sound good' was extremely confusing. I did not understand the intent 'sound good' was supposed to have on how I was to answer the 2nd half. Poorly worded.,Male,English,Chrome,Windows,768,1366,4.7146333333333335,
1123,default,block2,emily,ai,0.87,703,pretend,53,pretend,C,[],26,Yes,The 'sound good' was extremely confusing. I did not understand the intent 'sound good' was supposed to have on how I was to answer the 2nd half. Poorly worded.,Male,English,Chrome,Windows,768,1366,4.7146333333333335,
1123,default,block2,grace,ai,0.81,750,inform,54,inform,C,[],26,Yes,The 'sound good' was extremely confusing. I did not understand the intent 'sound good' was supposed to have on how I was to answer the 2nd half. Poorly worded.,Male,English,Chrome,Windows,768,1366,4.7146333333333335,
1123,default,block2,julian,ai,0.78,720,admit,55,admit,C,[],26,Yes,The 'sound good' was extremely confusing. I did not understand the intent 'sound good' was supposed to have on how I was to answer the 2nd half. Poorly worded.,Male,English,Chrome,Windows,768,1366,4.7146333333333335,
1123,default,block2,tony,ai,0.21,726,confess,56,confess,C,[],26,Yes,The 'sound good' was extremely confusing. I did not understand the intent 'sound good' was supposed to have on how I was to answer the 2nd half. Poorly worded.,Male,English,Chrome,Windows,768,1366,4.7146333333333335,
1123,default,block2,josh,ai,0.24,1801,be_right,57,be_right,C,[],26,Yes,The 'sound good' was extremely confusing. I did not understand the intent 'sound good' was supposed to have on how I was to answer the 2nd half. Poorly worded.,Male,English,Chrome,Windows,768,1366,4.7146333333333335,
1120,default,block1,owen,projective,0.88,26467,inform,5,inform,C,[],24,Yes,,Female,English,Chrome,Mac,800,1280,9.48055,
1120,default,block1,mia,projective,0.38,16027,be_right,6,be_right,C,[],24,Yes,,Female,English,Chrome,Mac,800,1280,9.48055,
1120,default,block1,grace,projective,0.3,10737,suggest,7,suggest,C,[],24,Yes,,Female,English,Chrome,Mac,800,1280,9.48055,
1120,default,block1,olivia,projective,0.36,15020,say,8,say,C,[],24,Yes,,Female,English,Chrome,Mac,800,1280,9.48055,
1120,default,block1,charley,projective,0.81,13111,demonstrate,9,demonstrate,C,[],24,Yes,,Female,English,Chrome,Mac,800,1280,9.48055,
1120,default,block1,jon,projective,0.83,16332,admit,10,admit,C,[],24,Yes,,Female,English,Chrome,Mac,800,1280,9.48055,
1120,default,block1,garage,projective,0.97,14183,MC,11,MC,MC,[],24,Yes,,Female,English,Chrome,Mac,800,1280,9.48055,
1120,default,block1,hat,projective,0.97,7470,MC,12,MC,MC,[],24,Yes,,Female,English,Chrome,Mac,800,1280,9.48055,
1120,default,block1,danny,projective,0.93,11549,confirm,13,confirm,C,[],24,Yes,,Female,English,Chrome,Mac,800,1280,9.48055,
1120,default,block1,isabella,projective,0.88,7245,see,14,see,C,[],24,Yes,,Female,English,Chrome,Mac,800,1280,9.48055,
1120,default,block1,emma,projective,0.84,13601,confess,15,confess,C,[],24,Yes,,Female,English,Chrome,Mac,800,1280,9.48055,
1120,default,block1,kids,projective,0.99,7452,MC,16,MC,MC,[],24,Yes,,Female,English,Chrome,Mac,800,1280,9.48055,
1120,default,block1,zoe,projective,0.79,8918,establish,17,establish,C,[],24,Yes,,Female,English,Chrome,Mac,800,1280,9.48055,
1120,default,block1,julian,projective,0.32,10637,pretend,18,pretend,C,[],24,Yes,,Female,English,Chrome,Mac,800,1280,9.48055,
1120,default,block1,josie,projective,0.26,6044,think,19,think,C,[],24,Yes,,Female,English,Chrome,Mac,800,1280,9.48055,
1120,default,block1,emily,projective,0.92,5958,be_annoyed,20,be_annoyed,C,[],24,Yes,,Female,English,Chrome,Mac,800,1280,9.48055,
1120,default,block1,frank,projective,0.84,5889,announce,21,announce,C,[],24,Yes,,Female,English,Chrome,Mac,800,1280,9.48055,
1120,default,block1,ballet,projective,0.97,5429,MC,22,MC,MC,[],24,Yes,,Female,English,Chrome,Mac,800,1280,9.48055,
1120,default,block1,sophia,projective,0.71,5386,know,23,know,C,[],24,Yes,,Female,English,Chrome,Mac,800,1280,9.48055,
1120,default,block1,mary,projective,0.85,5353,discover,24,discover,C,[],24,Yes,,Female,English,Chrome,Mac,800,1280,9.48055,
1120,default,block1,pizza,projective,0.98,3740,MC,25,MC,MC,[],24,Yes,,Female,English,Chrome,Mac,800,1280,9.48055,
1120,default,block1,jackson,projective,0.89,4171,acknowledge,26,acknowledge,C,[],24,Yes,,Female,English,Chrome,Mac,800,1280,9.48055,
1120,default,block1,tony,projective,0.62,9129,hear,27,hear,C,[],24,Yes,,Female,English,Chrome,Mac,800,1280,9.48055,
1120,default,block1,jayden,projective,0.97,4902,reveal,28,reveal,C,[],24,Yes,,Female,English,Chrome,Mac,800,1280,9.48055,
1120,default,block1,muffins,projective,0.99,6110,MC,29,MC,MC,[],24,Yes,,Female,English,Chrome,Mac,800,1280,9.48055,
1120,default,block1,josh,projective,0.83,6234,prove,30,prove,C,[],24,Yes,,Female,English,Chrome,Mac,800,1280,9.48055,
1120,default,block2,hat,ai,0.77,13636,MC,32,MC,MC,[],24,Yes,,Female,English,Chrome,Mac,800,1280,9.48055,
1120,default,block2,isabella,ai,0.67,14061,see,33,see,C,[],24,Yes,,Female,English,Chrome,Mac,800,1280,9.48055,
1120,default,block2,frank,ai,0.86,8820,announce,34,announce,C,[],24,Yes,,Female,English,Chrome,Mac,800,1280,9.48055,
1120,default,block2,charley,ai,0.8,7297,demonstrate,35,demonstrate,C,[],24,Yes,,Female,English,Chrome,Mac,800,1280,9.48055,
1120,default,block2,julian,ai,0.5,11442,pretend,36,pretend,C,[],24,Yes,,Female,English,Chrome,Mac,800,1280,9.48055,
1120,default,block2,muffins,ai,0.86,6558,MC,37,MC,MC,[],24,Yes,,Female,English,Chrome,Mac,800,1280,9.48055,
1120,default,block2,sophia,ai,0.84,4832,know,38,know,C,[],24,Yes,,Female,English,Chrome,Mac,800,1280,9.48055,
1120,default,block2,pizza,ai,0.37,10842,MC,39,MC,MC,[],24,Yes,,Female,English,Chrome,Mac,800,1280,9.48055,
1120,default,block2,zoe,ai,0.51,5216,establish,40,establish,C,[],24,Yes,,Female,English,Chrome,Mac,800,1280,9.48055,
1120,default,block2,jon,ai,0.69,5948,admit,41,admit,C,[],24,Yes,,Female,English,Chrome,Mac,800,1280,9.48055,
1120,default,block2,ballet,ai,0.49,7372,MC,42,MC,MC,[],24,Yes,,Female,English,Chrome,Mac,800,1280,9.48055,
1120,default,block2,emma,ai,0.59,10395,confess,43,confess,C,[],24,Yes,,Female,English,Chrome,Mac,800,1280,9.48055,
1120,default,block2,emily,ai,0.91,6154,be_annoyed,44,be_annoyed,C,[],24,Yes,,Female,English,Chrome,Mac,800,1280,9.48055,
1120,default,block2,josie,ai,0.42,5461,think,45,think,C,[],24,Yes,,Female,English,Chrome,Mac,800,1280,9.48055,
1120,default,block2,mary,ai,0.36,4405,discover,46,discover,C,[],24,Yes,,Female,English,Chrome,Mac,800,1280,9.48055,
1120,default,block2,jackson,ai,0.5,10820,acknowledge,47,acknowledge,C,[],24,Yes,,Female,English,Chrome,Mac,800,1280,9.48055,
1120,default,block2,grace,ai,0.49,5665,suggest,48,suggest,C,[],24,Yes,,Female,English,Chrome,Mac,800,1280,9.48055,
1120,default,block2,garage,ai,0.64,5005,MC,49,MC,MC,[],24,Yes,,Female,English,Chrome,Mac,800,1280,9.48055,
1120,default,block2,olivia,ai,0.46,5345,say,50,say,C,[],24,Yes,,Female,English,Chrome,Mac,800,1280,9.48055,
1120,default,block2,owen,ai,0.78,5897,inform,51,inform,C,[],24,Yes,,Female,English,Chrome,Mac,800,1280,9.48055,
1120,default,block2,kids,ai,0.1,7197,MC,52,MC,MC,[],24,Yes,,Female,English,Chrome,Mac,800,1280,9.48055,
1120,default,block2,danny,ai,0.45,5312,confirm,53,confirm,C,[],24,Yes,,Female,English,Chrome,Mac,800,1280,9.48055,
1120,default,block2,josh,ai,0.45,4237,prove,54,prove,C,[],24,Yes,,Female,English,Chrome,Mac,800,1280,9.48055,
1120,default,block2,mia,ai,0.35,7602,be_right,55,be_right,C,[],24,Yes,,Female,English,Chrome,Mac,800,1280,9.48055,
1120,default,block2,jayden,ai,0.61,4393,reveal,56,reveal,C,[],24,Yes,,Female,English,Chrome,Mac,800,1280,9.48055,
1120,default,block2,tony,ai,0.6,4795,hear,57,hear,C,[],24,Yes,,Female,English,Chrome,Mac,800,1280,9.48055,
1115,default,block1,isabella,ai,0.04,21273,establish,5,establish,C,[],22,Yes,,Female,English,Chrome,Windows,864,1536,8.369766666666667,
1115,default,block1,zoe,ai,0.03,10986,confirm,6,confirm,C,[],22,Yes,,Female,English,Chrome,Windows,864,1536,8.369766666666667,
1115,default,block1,josie,ai,0.04,6069,be_right,7,be_right,C,[],22,Yes,,Female,English,Chrome,Windows,864,1536,8.369766666666667,
1115,default,block1,charley,ai,0.05,11082,announce,8,announce,C,[],22,Yes,,Female,English,Chrome,Windows,864,1536,8.369766666666667,
1115,default,block1,tony,ai,0.05,8754,see,9,see,C,[],22,Yes,,Female,English,Chrome,Windows,864,1536,8.369766666666667,
1115,default,block1,owen,ai,0.01,10086,pretend,10,pretend,C,[],22,Yes,,Female,English,Chrome,Windows,864,1536,8.369766666666667,
1115,default,block1,jayden,ai,0.1,5052,admit,11,admit,C,[],22,Yes,,Female,English,Chrome,Windows,864,1536,8.369766666666667,
1115,default,block1,frank,ai,0.38,10522,know,12,know,C,[],22,Yes,,Female,English,Chrome,Windows,864,1536,8.369766666666667,
1115,default,block1,kids,ai,0.88,8980,MC,13,MC,MC,[],22,Yes,,Female,English,Chrome,Windows,864,1536,8.369766666666667,
1115,default,block1,ballet,ai,0.85,7225,MC,14,MC,MC,[],22,Yes,,Female,English,Chrome,Windows,864,1536,8.369766666666667,
1115,default,block1,mary,ai,0.43,11151,suggest,15,suggest,C,[],22,Yes,,Female,English,Chrome,Windows,864,1536,8.369766666666667,
1115,default,block1,josh,ai,0.05,5972,say,16,say,C,[],22,Yes,,Female,English,Chrome,Windows,864,1536,8.369766666666667,
1115,default,block1,garage,ai,0.9,5875,MC,17,MC,MC,[],22,Yes,,Female,English,Chrome,Windows,864,1536,8.369766666666667,
1115,default,block1,julian,ai,0.12,7624,reveal,18,reveal,C,[],22,Yes,,Female,English,Chrome,Windows,864,1536,8.369766666666667,
1115,default,block1,danny,ai,0.06,5956,demonstrate,19,demonstrate,C,[],22,Yes,,Female,English,Chrome,Windows,864,1536,8.369766666666667,
1115,default,block1,jon,ai,0.04,8919,acknowledge,20,acknowledge,C,[],22,Yes,,Female,English,Chrome,Windows,864,1536,8.369766666666667,
1115,default,block1,muffins,ai,0.66,9756,MC,21,MC,MC,[],22,Yes,,Female,English,Chrome,Windows,864,1536,8.369766666666667,
1115,default,block1,hat,ai,0.67,5326,MC,22,MC,MC,[],22,Yes,,Female,English,Chrome,Windows,864,1536,8.369766666666667,
1115,default,block1,pizza,ai,0.91,7557,MC,23,MC,MC,[],22,Yes,,Female,English,Chrome,Windows,864,1536,8.369766666666667,
1115,default,block1,jackson,ai,0.13,6503,be_annoyed,24,be_annoyed,C,[],22,Yes,,Female,English,Chrome,Windows,864,1536,8.369766666666667,
1115,default,block1,emma,ai,0.13,4866,think,25,think,C,[],22,Yes,,Female,English,Chrome,Windows,864,1536,8.369766666666667,
1115,default,block1,grace,ai,0.32,8541,discover,26,discover,C,[],22,Yes,,Female,English,Chrome,Windows,864,1536,8.369766666666667,
1115,default,block1,sophia,ai,0.37,17265,hear,27,hear,C,[],22,Yes,,Female,English,Chrome,Windows,864,1536,8.369766666666667,
1115,default,block1,emily,ai,0.09,48362,prove,28,prove,C,[],22,Yes,,Female,English,Chrome,Windows,864,1536,8.369766666666667,
1115,default,block1,mia,ai,0.36,8263,confess,29,confess,C,[],22,Yes,,Female,English,Chrome,Windows,864,1536,8.369766666666667,
1115,default,block1,olivia,ai,0.07,8107,inform,30,inform,C,[],22,Yes,,Female,English,Chrome,Windows,864,1536,8.369766666666667,
1115,default,block2,hat,projective,0.96,8654,MC,32,MC,MC,[],22,Yes,,Female,English,Chrome,Windows,864,1536,8.369766666666667,
1115,default,block2,emily,projective,0.6,11660,prove,33,prove,C,[],22,Yes,,Female,English,Chrome,Windows,864,1536,8.369766666666667,
1115,default,block2,jackson,projective,0.95,6226,be_annoyed,34,be_annoyed,C,[],22,Yes,,Female,English,Chrome,Windows,864,1536,8.369766666666667,
1115,default,block2,danny,projective,0.48,8082,demonstrate,35,demonstrate,C,[],22,Yes,,Female,English,Chrome,Windows,864,1536,8.369766666666667,
1115,default,block2,owen,projective,0.52,6565,pretend,36,pretend,C,[],22,Yes,,Female,English,Chrome,Windows,864,1536,8.369766666666667,
1115,default,block2,josh,projective,0.22,7099,say,37,say,C,[],22,Yes,,Female,English,Chrome,Windows,864,1536,8.369766666666667,
1115,default,block2,kids,projective,0.94,6329,MC,38,MC,MC,[],22,Yes,,Female,English,Chrome,Windows,864,1536,8.369766666666667,
1115,default,block2,ballet,projective,0.96,3219,MC,39,MC,MC,[],22,Yes,,Female,English,Chrome,Windows,864,1536,8.369766666666667,
1115,default,block2,josie,projective,0.03,13810,be_right,40,be_right,C,[],22,Yes,,Female,English,Chrome,Windows,864,1536,8.369766666666667,
1115,default,block2,pizza,projective,0.98,4211,MC,41,MC,MC,[],22,Yes,,Female,English,Chrome,Windows,864,1536,8.369766666666667,
1115,default,block2,tony,projective,0.85,8037,see,42,see,C,[],22,Yes,,Female,English,Chrome,Windows,864,1536,8.369766666666667,
1115,default,block2,sophia,projective,0.85,5957,hear,43,hear,C,[],22,Yes,,Female,English,Chrome,Windows,864,1536,8.369766666666667,
1115,default,block2,julian,projective,0.76,10250,reveal,44,reveal,C,[],22,Yes,,Female,English,Chrome,Windows,864,1536,8.369766666666667,
1115,default,block2,zoe,projective,0.84,6845,confirm,45,confirm,C,[],22,Yes,,Female,English,Chrome,Windows,864,1536,8.369766666666667,
1115,default,block2,olivia,projective,0.8,6282,inform,46,inform,C,[],22,Yes,,Female,English,Chrome,Windows,864,1536,8.369766666666667,
1115,default,block2,emma,projective,0.35,9500,think,47,think,C,[],22,Yes,,Female,English,Chrome,Windows,864,1536,8.369766666666667,
1115,default,block2,mia,projective,0.9,5053,confess,48,confess,C,[],22,Yes,,Female,English,Chrome,Windows,864,1536,8.369766666666667,
1115,default,block2,jon,projective,0.92,5422,acknowledge,49,acknowledge,C,[],22,Yes,,Female,English,Chrome,Windows,864,1536,8.369766666666667,
1115,default,block2,charley,projective,0.29,4046,announce,50,announce,C,[],22,Yes,,Female,English,Chrome,Windows,864,1536,8.369766666666667,
1115,default,block2,jayden,projective,0.93,4003,admit,51,admit,C,[],22,Yes,,Female,English,Chrome,Windows,864,1536,8.369766666666667,
1115,default,block2,muffins,projective,0.99,3218,MC,52,MC,MC,[],22,Yes,,Female,English,Chrome,Windows,864,1536,8.369766666666667,
1115,default,block2,grace,projective,0.78,4054,discover,53,discover,C,[],22,Yes,,Female,English,Chrome,Windows,864,1536,8.369766666666667,
1115,default,block2,frank,projective,0.74,6857,know,54,know,C,[],22,Yes,,Female,English,Chrome,Windows,864,1536,8.369766666666667,
1115,default,block2,mary,projective,0.34,4474,suggest,55,suggest,C,[],22,Yes,,Female,English,Chrome,Windows,864,1536,8.369766666666667,
1115,default,block2,garage,projective,0.95,4128,MC,56,MC,MC,[],22,Yes,,Female,English,Chrome,Windows,864,1536,8.369766666666667,
1115,default,block2,isabella,projective,0.34,4726,establish,57,establish,C,[],22,Yes,,Female,English,Chrome,Windows,864,1536,8.369766666666667,
1122,default,block1,zoe,ai,0,53752,say,5,say,C,[],42,Yes,"About 3/4 of the way through the experiment, I got into a mental argument with myself about what was actually being said.",Male,English,Chrome,Windows,1080,1920,20.86015,
1122,default,block1,sophia,ai,0,22655,prove,6,prove,C,[],42,Yes,"About 3/4 of the way through the experiment, I got into a mental argument with myself about what was actually being said.",Male,English,Chrome,Windows,1080,1920,20.86015,
1122,default,block1,julian,ai,0,51671,think,7,think,C,[],42,Yes,"About 3/4 of the way through the experiment, I got into a mental argument with myself about what was actually being said.",Male,English,Chrome,Windows,1080,1920,20.86015,
1122,default,block1,grace,ai,0,21712,be_annoyed,8,be_annoyed,C,[],42,Yes,"About 3/4 of the way through the experiment, I got into a mental argument with myself about what was actually being said.",Male,English,Chrome,Windows,1080,1920,20.86015,
1122,default,block1,danny,ai,0,13752,suggest,9,suggest,C,[],42,Yes,"About 3/4 of the way through the experiment, I got into a mental argument with myself about what was actually being said.",Male,English,Chrome,Windows,1080,1920,20.86015,
1122,default,block1,jayden,ai,0,21928,establish,10,establish,C,[],42,Yes,"About 3/4 of the way through the experiment, I got into a mental argument with myself about what was actually being said.",Male,English,Chrome,Windows,1080,1920,20.86015,
1122,default,block1,muffins,ai,1,16936,MC,11,MC,MC,[],42,Yes,"About 3/4 of the way through the experiment, I got into a mental argument with myself about what was actually being said.",Male,English,Chrome,Windows,1080,1920,20.86015,
1122,default,block1,jackson,ai,0,21768,hear,12,hear,C,[],42,Yes,"About 3/4 of the way through the experiment, I got into a mental argument with myself about what was actually being said.",Male,English,Chrome,Windows,1080,1920,20.86015,
1122,default,block1,isabella,ai,0,38031,pretend,13,pretend,C,[],42,Yes,"About 3/4 of the way through the experiment, I got into a mental argument with myself about what was actually being said.",Male,English,Chrome,Windows,1080,1920,20.86015,
1122,default,block1,hat,ai,1,22912,MC,14,MC,MC,[],42,Yes,"About 3/4 of the way through the experiment, I got into a mental argument with myself about what was actually being said.",Male,English,Chrome,Windows,1080,1920,20.86015,
1122,default,block1,garage,ai,1,18408,MC,15,MC,MC,[],42,Yes,"About 3/4 of the way through the experiment, I got into a mental argument with myself about what was actually being said.",Male,English,Chrome,Windows,1080,1920,20.86015,
1122,default,block1,charley,ai,0,12503,be_right,16,be_right,C,[],42,Yes,"About 3/4 of the way through the experiment, I got into a mental argument with myself about what was actually being said.",Male,English,Chrome,Windows,1080,1920,20.86015,
1122,default,block1,tony,ai,0,10471,admit,17,admit,C,[],42,Yes,"About 3/4 of the way through the experiment, I got into a mental argument with myself about what was actually being said.",Male,English,Chrome,Windows,1080,1920,20.86015,
1122,default,block1,emily,ai,0,13832,inform,18,inform,C,[],42,Yes,"About 3/4 of the way through the experiment, I got into a mental argument with myself about what was actually being said.",Male,English,Chrome,Windows,1080,1920,20.86015,
1122,default,block1,jon,ai,0,13592,demonstrate,19,demonstrate,C,[],42,Yes,"About 3/4 of the way through the experiment, I got into a mental argument with myself about what was actually being said.",Male,English,Chrome,Windows,1080,1920,20.86015,
1122,default,block1,olivia,ai,0,10743,acknowledge,20,acknowledge,C,[],42,Yes,"About 3/4 of the way through the experiment, I got into a mental argument with myself about what was actually being said.",Male,English,Chrome,Windows,1080,1920,20.86015,
1122,default,block1,owen,ai,0,9560,discover,21,discover,C,[],42,Yes,"About 3/4 of the way through the experiment, I got into a mental argument with myself about what was actually being said.",Male,English,Chrome,Windows,1080,1920,20.86015,
1122,default,block1,mia,ai,0,17824,reveal,22,reveal,C,[],42,Yes,"About 3/4 of the way through the experiment, I got into a mental argument with myself about what was actually being said.",Male,English,Chrome,Windows,1080,1920,20.86015,
1122,default,block1,josh,ai,0,17720,see,23,see,C,[],42,Yes,"About 3/4 of the way through the experiment, I got into a mental argument with myself about what was actually being said.",Male,English,Chrome,Windows,1080,1920,20.86015,
1122,default,block1,mary,ai,0,13864,know,24,know,C,[],42,Yes,"About 3/4 of the way through the experiment, I got into a mental argument with myself about what was actually being said.",Male,English,Chrome,Windows,1080,1920,20.86015,
1122,default,block1,josie,ai,0,10352,confess,25,confess,C,[],42,Yes,"About 3/4 of the way through the experiment, I got into a mental argument with myself about what was actually being said.",Male,English,Chrome,Windows,1080,1920,20.86015,
1122,default,block1,frank,ai,0,8511,confirm,26,confirm,C,[],42,Yes,"About 3/4 of the way through the experiment, I got into a mental argument with myself about what was actually being said.",Male,English,Chrome,Windows,1080,1920,20.86015,
1122,default,block1,pizza,ai,1,19200,MC,27,MC,MC,[],42,Yes,"About 3/4 of the way through the experiment, I got into a mental argument with myself about what was actually being said.",Male,English,Chrome,Windows,1080,1920,20.86015,
1122,default,block1,kids,ai,1,16967,MC,28,MC,MC,[],42,Yes,"About 3/4 of the way through the experiment, I got into a mental argument with myself about what was actually being said.",Male,English,Chrome,Windows,1080,1920,20.86015,
1122,default,block1,ballet,ai,1,11991,MC,29,MC,MC,[],42,Yes,"About 3/4 of the way through the experiment, I got into a mental argument with myself about what was actually being said.",Male,English,Chrome,Windows,1080,1920,20.86015,
1122,default,block1,emma,ai,0,20176,announce,30,announce,C,[],42,Yes,"About 3/4 of the way through the experiment, I got into a mental argument with myself about what was actually being said.",Male,English,Chrome,Windows,1080,1920,20.86015,
1122,default,block2,tony,projective,1,13535,admit,32,admit,C,[],42,Yes,"About 3/4 of the way through the experiment, I got into a mental argument with myself about what was actually being said.",Male,English,Chrome,Windows,1080,1920,20.86015,
1122,default,block2,mia,projective,1,7088,reveal,33,reveal,C,[],42,Yes,"About 3/4 of the way through the experiment, I got into a mental argument with myself about what was actually being said.",Male,English,Chrome,Windows,1080,1920,20.86015,
1122,default,block2,jon,projective,1,6017,demonstrate,34,demonstrate,C,[],42,Yes,"About 3/4 of the way through the experiment, I got into a mental argument with myself about what was actually being said.",Male,English,Chrome,Windows,1080,1920,20.86015,
1122,default,block2,emma,projective,1,9200,announce,35,announce,C,[],42,Yes,"About 3/4 of the way through the experiment, I got into a mental argument with myself about what was actually being said.",Male,English,Chrome,Windows,1080,1920,20.86015,
1122,default,block2,julian,projective,1,13304,think,36,think,C,[],42,Yes,"About 3/4 of the way through the experiment, I got into a mental argument with myself about what was actually being said.",Male,English,Chrome,Windows,1080,1920,20.86015,
1122,default,block2,garage,projective,1,14016,MC,37,MC,MC,[],42,Yes,"About 3/4 of the way through the experiment, I got into a mental argument with myself about what was actually being said.",Male,English,Chrome,Windows,1080,1920,20.86015,
1122,default,block2,pizza,projective,1,7072,MC,38,MC,MC,[],42,Yes,"About 3/4 of the way through the experiment, I got into a mental argument with myself about what was actually being said.",Male,English,Chrome,Windows,1080,1920,20.86015,
1122,default,block2,danny,projective,0,46631,suggest,39,suggest,C,[],42,Yes,"About 3/4 of the way through the experiment, I got into a mental argument with myself about what was actually being said.",Male,English,Chrome,Windows,1080,1920,20.86015,
1122,default,block2,josh,projective,1,19639,see,40,see,C,[],42,Yes,"About 3/4 of the way through the experiment, I got into a mental argument with myself about what was actually being said.",Male,English,Chrome,Windows,1080,1920,20.86015,
1122,default,block2,jayden,projective,1,11671,establish,41,establish,C,[],42,Yes,"About 3/4 of the way through the experiment, I got into a mental argument with myself about what was actually being said.",Male,English,Chrome,Windows,1080,1920,20.86015,
1122,default,block2,kids,projective,1,11057,MC,42,MC,MC,[],42,Yes,"About 3/4 of the way through the experiment, I got into a mental argument with myself about what was actually being said.",Male,English,Chrome,Windows,1080,1920,20.86015,
1122,default,block2,olivia,projective,1,5767,acknowledge,43,acknowledge,C,[],42,Yes,"About 3/4 of the way through the experiment, I got into a mental argument with myself about what was actually being said.",Male,English,Chrome,Windows,1080,1920,20.86015,
1122,default,block2,josie,projective,1,9336,confess,44,confess,C,[],42,Yes,"About 3/4 of the way through the experiment, I got into a mental argument with myself about what was actually being said.",Male,English,Chrome,Windows,1080,1920,20.86015,
1122,default,block2,muffins,projective,1,6240,MC,45,MC,MC,[],42,Yes,"About 3/4 of the way through the experiment, I got into a mental argument with myself about what was actually being said.",Male,English,Chrome,Windows,1080,1920,20.86015,
1122,default,block2,emily,projective,1,12832,inform,46,inform,C,[],42,Yes,"About 3/4 of the way through the experiment, I got into a mental argument with myself about what was actually being said.",Male,English,Chrome,Windows,1080,1920,20.86015,
1122,default,block2,ballet,projective,1,6616,MC,47,MC,MC,[],42,Yes,"About 3/4 of the way through the experiment, I got into a mental argument with myself about what was actually being said.",Male,English,Chrome,Windows,1080,1920,20.86015,
1122,default,block2,frank,projective,1,5200,confirm,48,confirm,C,[],42,Yes,"About 3/4 of the way through the experiment, I got into a mental argument with myself about what was actually being said.",Male,English,Chrome,Windows,1080,1920,20.86015,
1122,default,block2,sophia,projective,1,5256,prove,49,prove,C,[],42,Yes,"About 3/4 of the way through the experiment, I got into a mental argument with myself about what was actually being said.",Male,English,Chrome,Windows,1080,1920,20.86015,
1122,default,block2,grace,projective,1,10448,be_annoyed,50,be_annoyed,C,[],42,Yes,"About 3/4 of the way through the experiment, I got into a mental argument with myself about what was actually being said.",Male,English,Chrome,Windows,1080,1920,20.86015,
1122,default,block2,isabella,projective,0,24376,pretend,51,pretend,C,[],42,Yes,"About 3/4 of the way through the experiment, I got into a mental argument with myself about what was actually being said.",Male,English,Chrome,Windows,1080,1920,20.86015,
1122,default,block2,jackson,projective,0,10248,hear,52,hear,C,[],42,Yes,"About 3/4 of the way through the experiment, I got into a mental argument with myself about what was actually being said.",Male,English,Chrome,Windows,1080,1920,20.86015,
1122,default,block2,charley,projective,0,7824,be_right,53,be_right,C,[],42,Yes,"About 3/4 of the way through the experiment, I got into a mental argument with myself about what was actually being said.",Male,English,Chrome,Windows,1080,1920,20.86015,
1122,default,block2,mary,projective,0,10552,know,54,know,C,[],42,Yes,"About 3/4 of the way through the experiment, I got into a mental argument with myself about what was actually being said.",Male,English,Chrome,Windows,1080,1920,20.86015,
1122,default,block2,hat,projective,1,7528,MC,55,MC,MC,[],42,Yes,"About 3/4 of the way through the experiment, I got into a mental argument with myself about what was actually being said.",Male,English,Chrome,Windows,1080,1920,20.86015,
1122,default,block2,owen,projective,0,21224,discover,56,discover,C,[],42,Yes,"About 3/4 of the way through the experiment, I got into a mental argument with myself about what was actually being said.",Male,English,Chrome,Windows,1080,1920,20.86015,
1122,default,block2,zoe,projective,0,20439,say,57,say,C,[],42,Yes,"About 3/4 of the way through the experiment, I got into a mental argument with myself about what was actually being said.",Male,English,Chrome,Windows,1080,1920,20.86015,
1118,default,block1,josie,projective,0.03,19536,announce,5,announce,C,[],18,Yes,,Female,English,Safari,Mac,900,1440,50.069066666666664,
1118,default,block1,danny,projective,0.02,64705,suggest,6,suggest,C,[],18,Yes,,Female,English,Safari,Mac,900,1440,50.069066666666664,
1118,default,block1,zoe,projective,0.97,7867,acknowledge,7,acknowledge,C,[],18,Yes,,Female,English,Safari,Mac,900,1440,50.069066666666664,
1118,default,block1,sophia,projective,0.98,23162,establish,8,establish,C,[],18,Yes,,Female,English,Safari,Mac,900,1440,50.069066666666664,
1118,default,block1,muffins,projective,0.98,9253,MC,9,MC,MC,[],18,Yes,,Female,English,Safari,Mac,900,1440,50.069066666666664,
1118,default,block1,olivia,projective,0.99,25573,be_annoyed,10,be_annoyed,C,[],18,Yes,,Female,English,Safari,Mac,900,1440,50.069066666666664,
1118,default,block1,ballet,projective,0.99,4875,MC,11,MC,MC,[],18,Yes,,Female,English,Safari,Mac,900,1440,50.069066666666664,
1118,default,block1,charley,projective,0.83,11477,know,12,know,C,[],18,Yes,,Female,English,Safari,Mac,900,1440,50.069066666666664,
1118,default,block1,grace,projective,0.87,53616,reveal,13,reveal,C,[],18,Yes,,Female,English,Safari,Mac,900,1440,50.069066666666664,
1118,default,block1,jayden,projective,0.79,7651,hear,14,hear,C,[],18,Yes,,Female,English,Safari,Mac,900,1440,50.069066666666664,
1118,default,block1,frank,projective,0.24,5162,demonstrate,15,demonstrate,C,[],18,Yes,,Female,English,Safari,Mac,900,1440,50.069066666666664,
1118,default,block1,hat,projective,0.99,6778,MC,16,MC,MC,[],18,Yes,,Female,English,Safari,Mac,900,1440,50.069066666666664,
1118,default,block1,tony,projective,0.97,5796,inform,17,inform,C,[],18,Yes,,Female,English,Safari,Mac,900,1440,50.069066666666664,
1118,default,block1,mary,projective,0.95,3440,prove,18,prove,C,[],18,Yes,,Female,English,Safari,Mac,900,1440,50.069066666666664,
1118,default,block1,jon,projective,0.4,7506,see,19,see,C,[],18,Yes,,Female,English,Safari,Mac,900,1440,50.069066666666664,
1118,default,block1,jackson,projective,0.67,6803,discover,20,discover,C,[],18,Yes,,Female,English,Safari,Mac,900,1440,50.069066666666664,
1118,default,block1,emily,projective,0.01,7619,pretend,21,pretend,C,[],18,Yes,,Female,English,Safari,Mac,900,1440,50.069066666666664,
1118,default,block1,owen,projective,0.88,8940,say,22,say,C,[],18,Yes,,Female,English,Safari,Mac,900,1440,50.069066666666664,
1118,default,block1,isabella,projective,0.98,7114,admit,23,admit,C,[],18,Yes,,Female,English,Safari,Mac,900,1440,50.069066666666664,
1118,default,block1,emma,projective,0.97,6978,confess,24,confess,C,[],18,Yes,,Female,English,Safari,Mac,900,1440,50.069066666666664,
1118,default,block1,julian,projective,0.98,9843,be_right,25,be_right,C,[],18,Yes,,Female,English,Safari,Mac,900,1440,50.069066666666664,
1118,default,block1,mia,projective,0.21,49373,think,26,think,C,[],18,Yes,,Female,English,Safari,Mac,900,1440,50.069066666666664,
1118,default,block1,josh,projective,0.55,5993,confirm,27,confirm,C,[],18,Yes,,Female,English,Safari,Mac,900,1440,50.069066666666664,
1118,default,block1,kids,projective,0.97,5314,MC,28,MC,MC,[],18,Yes,,Female,English,Safari,Mac,900,1440,50.069066666666664,
1118,default,block1,garage,projective,0.99,4986,MC,29,MC,MC,[],18,Yes,,Female,English,Safari,Mac,900,1440,50.069066666666664,
1118,default,block1,pizza,projective,1,3696,MC,30,MC,MC,[],18,Yes,,Female,English,Safari,Mac,900,1440,50.069066666666664,
1118,default,block2,pizza,ai,0,12378,MC,32,MC,MC,[],18,Yes,,Female,English,Safari,Mac,900,1440,50.069066666666664,
1118,default,block2,josie,ai,0.98,11813,announce,33,announce,C,[],18,Yes,,Female,English,Safari,Mac,900,1440,50.069066666666664,
1118,default,block2,emma,ai,0.35,12364,confess,34,confess,C,[],18,Yes,,Female,English,Safari,Mac,900,1440,50.069066666666664,
1118,default,block2,isabella,ai,0.31,2938,admit,35,admit,C,[],18,Yes,,Female,English,Safari,Mac,900,1440,50.069066666666664,
1118,default,block2,danny,ai,0.32,2593,suggest,36,suggest,C,[],18,Yes,,Female,English,Safari,Mac,900,1440,50.069066666666664,
1118,default,block2,muffins,ai,0,10196,MC,37,MC,MC,[],18,Yes,,Female,English,Safari,Mac,900,1440,50.069066666666664,
1118,default,block2,jackson,ai,0.4,2419882,discover,38,discover,C,[],18,Yes,,Female,English,Safari,Mac,900,1440,50.069066666666664,
1118,default,block2,emily,ai,0.36,5122,pretend,39,pretend,C,[],18,Yes,,Female,English,Safari,Mac,900,1440,50.069066666666664,
1118,default,block2,olivia,ai,0.31,5715,be_annoyed,40,be_annoyed,C,[],18,Yes,,Female,English,Safari,Mac,900,1440,50.069066666666664,
1118,default,block2,mia,ai,0.63,8549,think,41,think,C,[],18,Yes,,Female,English,Safari,Mac,900,1440,50.069066666666664,
1118,default,block2,jon,ai,0.26,5041,see,42,see,C,[],18,Yes,,Female,English,Safari,Mac,900,1440,50.069066666666664,
1118,default,block2,kids,ai,0.26,3514,MC,43,MC,MC,[],18,Yes,,Female,English,Safari,Mac,900,1440,50.069066666666664,
1118,default,block2,frank,ai,0.26,2177,demonstrate,44,demonstrate,C,[],18,Yes,,Female,English,Safari,Mac,900,1440,50.069066666666664,
1118,default,block2,garage,ai,0.27,19866,MC,45,MC,MC,[],18,Yes,,Female,English,Safari,Mac,900,1440,50.069066666666664,
1118,default,block2,julian,ai,0.24,1769,be_right,46,be_right,C,[],18,Yes,,Female,English,Safari,Mac,900,1440,50.069066666666664,
1118,default,block2,owen,ai,0.24,1800,say,47,say,C,[],18,Yes,,Female,English,Safari,Mac,900,1440,50.069066666666664,
1118,default,block2,hat,ai,0.24,4603,MC,48,MC,MC,[],18,Yes,,Female,English,Safari,Mac,900,1440,50.069066666666664,
1118,default,block2,zoe,ai,0.66,2578,acknowledge,49,acknowledge,C,[],18,Yes,,Female,English,Safari,Mac,900,1440,50.069066666666664,
1118,default,block2,charley,ai,0.64,1176,know,50,know,C,[],18,Yes,,Female,English,Safari,Mac,900,1440,50.069066666666664,
1118,default,block2,ballet,ai,0.65,1192,MC,51,MC,MC,[],18,Yes,,Female,English,Safari,Mac,900,1440,50.069066666666664,
1118,default,block2,tony,ai,0.64,1584,inform,52,inform,C,[],18,Yes,,Female,English,Safari,Mac,900,1440,50.069066666666664,
1118,default,block2,sophia,ai,0.66,1960,establish,53,establish,C,[],18,Yes,,Female,English,Safari,Mac,900,1440,50.069066666666664,
1118,default,block2,josh,ai,0.69,1264,confirm,54,confirm,C,[],18,Yes,,Female,English,Safari,Mac,900,1440,50.069066666666664,
1118,default,block2,grace,ai,0.8,1560,reveal,55,reveal,C,[],18,Yes,,Female,English,Safari,Mac,900,1440,50.069066666666664,
1118,default,block2,jayden,ai,0.31,1561,hear,56,hear,C,[],18,Yes,,Female,English,Safari,Mac,900,1440,50.069066666666664,
1118,default,block2,mary,ai,0.5,1169,prove,57,prove,C,[],18,Yes,,Female,English,Safari,Mac,900,1440,50.069066666666664,
