workerid,proliferate.condition,block,content,question_type,response,rt,short_trigger,slide_number_in_experiment,trigger,trigger_class,catch_trials,subject_information.age,subject_information.american,subject_information.comments,subject_information.gender,subject_information.language,system.Browser,system.OS,system.screenH,system.screenW,time_in_minutes,error
907,default,block1,josh,ai,0.03,30834,be_annoyed,5,be_annoyed,C,[],62,Yes,,Female,English,Chrome,Windows,768,1366,12.890083333333331,
907,default,block1,josie,ai,0,15031,reveal,6,reveal,C,[],62,Yes,,Female,English,Chrome,Windows,768,1366,12.890083333333331,
907,default,block1,julian,ai,0,22741,admit,7,admit,C,[],62,Yes,,Female,English,Chrome,Windows,768,1366,12.890083333333331,
907,default,block1,ballet,ai,0.98,21735,MC,8,MC,MC,[],62,Yes,,Female,English,Chrome,Windows,768,1366,12.890083333333331,
907,default,block1,jon,ai,0.02,11548,discover,9,discover,C,[],62,Yes,,Female,English,Chrome,Windows,768,1366,12.890083333333331,
907,default,block1,jackson,ai,0.01,15144,see,10,see,C,[],62,Yes,,Female,English,Chrome,Windows,768,1366,12.890083333333331,
907,default,block1,charley,ai,0.04,9299,prove,11,prove,C,[],62,Yes,,Female,English,Chrome,Windows,768,1366,12.890083333333331,
907,default,block1,owen,ai,0.02,14665,be_right,12,be_right,C,[],62,Yes,,Female,English,Chrome,Windows,768,1366,12.890083333333331,
907,default,block1,isabella,ai,0.02,10049,acknowledge,13,acknowledge,C,[],62,Yes,,Female,English,Chrome,Windows,768,1366,12.890083333333331,
907,default,block1,frank,ai,0,10341,say,14,say,C,[],62,Yes,,Female,English,Chrome,Windows,768,1366,12.890083333333331,
907,default,block1,mia,ai,0,12937,demonstrate,15,demonstrate,C,[],62,Yes,,Female,English,Chrome,Windows,768,1366,12.890083333333331,
907,default,block1,tony,ai,0.01,37910,think,16,think,C,[],62,Yes,,Female,English,Chrome,Windows,768,1366,12.890083333333331,
907,default,block1,hat,ai,1,13076,MC,17,MC,MC,[],62,Yes,,Female,English,Chrome,Windows,768,1366,12.890083333333331,
907,default,block1,emily,ai,0,8852,pretend,18,pretend,C,[],62,Yes,,Female,English,Chrome,Windows,768,1366,12.890083333333331,
907,default,block1,muffins,ai,1,11028,MC,19,MC,MC,[],62,Yes,,Female,English,Chrome,Windows,768,1366,12.890083333333331,
907,default,block1,mary,ai,0,14744,announce,20,announce,C,[],62,Yes,,Female,English,Chrome,Windows,768,1366,12.890083333333331,
907,default,block1,olivia,ai,0,10060,hear,21,hear,C,[],62,Yes,,Female,English,Chrome,Windows,768,1366,12.890083333333331,
907,default,block1,pizza,ai,1,13417,MC,22,MC,MC,[],62,Yes,,Female,English,Chrome,Windows,768,1366,12.890083333333331,
907,default,block1,kids,ai,1,15792,MC,23,MC,MC,[],62,Yes,,Female,English,Chrome,Windows,768,1366,12.890083333333331,
907,default,block1,grace,ai,0,9454,know,24,know,C,[],62,Yes,,Female,English,Chrome,Windows,768,1366,12.890083333333331,
907,default,block1,sophia,ai,0,9705,inform,25,inform,C,[],62,Yes,,Female,English,Chrome,Windows,768,1366,12.890083333333331,
907,default,block1,jayden,ai,0,8652,confirm,26,confirm,C,[],62,Yes,,Female,English,Chrome,Windows,768,1366,12.890083333333331,
907,default,block1,emma,ai,0,7811,confess,27,confess,C,[],62,Yes,,Female,English,Chrome,Windows,768,1366,12.890083333333331,
907,default,block1,garage,ai,1,11370,MC,28,MC,MC,[],62,Yes,,Female,English,Chrome,Windows,768,1366,12.890083333333331,
907,default,block1,zoe,ai,0,8780,suggest,29,suggest,C,[],62,Yes,,Female,English,Chrome,Windows,768,1366,12.890083333333331,
907,default,block1,danny,ai,0,6212,establish,30,establish,C,[],62,Yes,,Female,English,Chrome,Windows,768,1366,12.890083333333331,
907,default,block2,grace,projective,0.89,15292,know,32,know,C,[],62,Yes,,Female,English,Chrome,Windows,768,1366,12.890083333333331,
907,default,block2,pizza,projective,1,8326,MC,33,MC,MC,[],62,Yes,,Female,English,Chrome,Windows,768,1366,12.890083333333331,
907,default,block2,sophia,projective,0.54,18190,inform,34,inform,C,[],62,Yes,,Female,English,Chrome,Windows,768,1366,12.890083333333331,
907,default,block2,charley,projective,0.73,13770,prove,35,prove,C,[],62,Yes,,Female,English,Chrome,Windows,768,1366,12.890083333333331,
907,default,block2,frank,projective,0.54,14067,say,36,say,C,[],62,Yes,,Female,English,Chrome,Windows,768,1366,12.890083333333331,
907,default,block2,hat,projective,1,7714,MC,37,MC,MC,[],62,Yes,,Female,English,Chrome,Windows,768,1366,12.890083333333331,
907,default,block2,jackson,projective,0.85,14268,see,38,see,C,[],62,Yes,,Female,English,Chrome,Windows,768,1366,12.890083333333331,
907,default,block2,emma,projective,0.85,8834,confess,39,confess,C,[],62,Yes,,Female,English,Chrome,Windows,768,1366,12.890083333333331,
907,default,block2,isabella,projective,0.66,10242,acknowledge,40,acknowledge,C,[],62,Yes,,Female,English,Chrome,Windows,768,1366,12.890083333333331,
907,default,block2,ballet,projective,1,6653,MC,41,MC,MC,[],62,Yes,,Female,English,Chrome,Windows,768,1366,12.890083333333331,
907,default,block2,zoe,projective,0.48,11244,suggest,42,suggest,C,[],62,Yes,,Female,English,Chrome,Windows,768,1366,12.890083333333331,
907,default,block2,olivia,projective,0.5,8550,hear,43,hear,C,[],62,Yes,,Female,English,Chrome,Windows,768,1366,12.890083333333331,
907,default,block2,emily,projective,0.08,13402,pretend,44,pretend,C,[],62,Yes,,Female,English,Chrome,Windows,768,1366,12.890083333333331,
907,default,block2,muffins,projective,1,8473,MC,45,MC,MC,[],62,Yes,,Female,English,Chrome,Windows,768,1366,12.890083333333331,
907,default,block2,julian,projective,0.81,12627,admit,46,admit,C,[],62,Yes,,Female,English,Chrome,Windows,768,1366,12.890083333333331,
907,default,block2,josh,projective,0.92,16802,be_annoyed,47,be_annoyed,C,[],62,Yes,,Female,English,Chrome,Windows,768,1366,12.890083333333331,
907,default,block2,mary,projective,0.48,10378,announce,48,announce,C,[],62,Yes,,Female,English,Chrome,Windows,768,1366,12.890083333333331,
907,default,block2,tony,projective,0,15831,think,49,think,C,[],62,Yes,,Female,English,Chrome,Windows,768,1366,12.890083333333331,
907,default,block2,jon,projective,0.63,11555,discover,50,discover,C,[],62,Yes,,Female,English,Chrome,Windows,768,1366,12.890083333333331,
907,default,block2,kids,projective,1,6989,MC,51,MC,MC,[],62,Yes,,Female,English,Chrome,Windows,768,1366,12.890083333333331,
907,default,block2,jayden,projective,0.74,13338,confirm,52,confirm,C,[],62,Yes,,Female,English,Chrome,Windows,768,1366,12.890083333333331,
907,default,block2,danny,projective,0.85,10569,establish,53,establish,C,[],62,Yes,,Female,English,Chrome,Windows,768,1366,12.890083333333331,
907,default,block2,owen,projective,0.08,16519,be_right,54,be_right,C,[],62,Yes,,Female,English,Chrome,Windows,768,1366,12.890083333333331,
907,default,block2,mia,projective,0.05,10347,demonstrate,55,demonstrate,C,[],62,Yes,,Female,English,Chrome,Windows,768,1366,12.890083333333331,
907,default,block2,josie,projective,0.63,9818,reveal,56,reveal,C,[],62,Yes,,Female,English,Chrome,Windows,768,1366,12.890083333333331,
907,default,block2,garage,projective,1,7980,MC,57,MC,MC,[],62,Yes,,Female,English,Chrome,Windows,768,1366,12.890083333333331,
758,default,block1,jackson,projective,0.07,8639,be_annoyed,5,be_annoyed,C,[],27,Yes,,Female,"English, Korean",Chrome,Windows,1080,1920,4.97065,
758,default,block1,charley,projective,0.08,6364,say,6,say,C,[],27,Yes,,Female,"English, Korean",Chrome,Windows,1080,1920,4.97065,
758,default,block1,pizza,projective,1,4728,MC,7,MC,MC,[],27,Yes,,Female,"English, Korean",Chrome,Windows,1080,1920,4.97065,
758,default,block1,jon,projective,0.09,6853,suggest,8,suggest,C,[],27,Yes,,Female,"English, Korean",Chrome,Windows,1080,1920,4.97065,
758,default,block1,danny,projective,0.71,9168,announce,9,announce,C,[],27,Yes,,Female,"English, Korean",Chrome,Windows,1080,1920,4.97065,
758,default,block1,isabella,projective,0.08,4711,confirm,10,confirm,C,[],27,Yes,,Female,"English, Korean",Chrome,Windows,1080,1920,4.97065,
758,default,block1,mary,projective,0.16,4262,prove,11,prove,C,[],27,Yes,,Female,"English, Korean",Chrome,Windows,1080,1920,4.97065,
758,default,block1,grace,projective,0.08,4822,pretend,12,pretend,C,[],27,Yes,,Female,"English, Korean",Chrome,Windows,1080,1920,4.97065,
758,default,block1,josie,projective,0.96,6001,hear,13,hear,C,[],27,Yes,,Female,"English, Korean",Chrome,Windows,1080,1920,4.97065,
758,default,block1,muffins,projective,1,2876,MC,14,MC,MC,[],27,Yes,,Female,"English, Korean",Chrome,Windows,1080,1920,4.97065,
758,default,block1,josh,projective,0.94,4174,confess,15,confess,C,[],27,Yes,,Female,"English, Korean",Chrome,Windows,1080,1920,4.97065,
758,default,block1,emma,projective,0.9,3876,discover,16,discover,C,[],27,Yes,,Female,"English, Korean",Chrome,Windows,1080,1920,4.97065,
758,default,block1,garage,projective,0.97,4030,MC,17,MC,MC,[],27,Yes,,Female,"English, Korean",Chrome,Windows,1080,1920,4.97065,
758,default,block1,julian,projective,0.92,4672,see,18,see,C,[],27,Yes,,Female,"English, Korean",Chrome,Windows,1080,1920,4.97065,
758,default,block1,hat,projective,1,2868,MC,19,MC,MC,[],27,Yes,,Female,"English, Korean",Chrome,Windows,1080,1920,4.97065,
758,default,block1,jayden,projective,0.97,4791,reveal,20,reveal,C,[],27,Yes,,Female,"English, Korean",Chrome,Windows,1080,1920,4.97065,
758,default,block1,ballet,projective,0.99,3285,MC,21,MC,MC,[],27,Yes,,Female,"English, Korean",Chrome,Windows,1080,1920,4.97065,
758,default,block1,owen,projective,0.1,4720,be_right,22,be_right,C,[],27,Yes,,Female,"English, Korean",Chrome,Windows,1080,1920,4.97065,
758,default,block1,frank,projective,0.75,5041,admit,23,admit,C,[],27,Yes,,Female,"English, Korean",Chrome,Windows,1080,1920,4.97065,
758,default,block1,zoe,projective,0.88,5777,acknowledge,24,acknowledge,C,[],27,Yes,,Female,"English, Korean",Chrome,Windows,1080,1920,4.97065,
758,default,block1,emily,projective,0.39,9385,think,25,think,C,[],27,Yes,,Female,"English, Korean",Chrome,Windows,1080,1920,4.97065,
758,default,block1,sophia,projective,0.51,5816,demonstrate,26,demonstrate,C,[],27,Yes,,Female,"English, Korean",Chrome,Windows,1080,1920,4.97065,
758,default,block1,kids,projective,1,2481,MC,27,MC,MC,[],27,Yes,,Female,"English, Korean",Chrome,Windows,1080,1920,4.97065,
758,default,block1,tony,projective,0.64,5380,establish,28,establish,C,[],27,Yes,,Female,"English, Korean",Chrome,Windows,1080,1920,4.97065,
758,default,block1,mia,projective,0.96,3397,know,29,know,C,[],27,Yes,,Female,"English, Korean",Chrome,Windows,1080,1920,4.97065,
758,default,block1,olivia,projective,0.98,6626,inform,30,inform,C,[],27,Yes,,Female,"English, Korean",Chrome,Windows,1080,1920,4.97065,
758,default,block2,jon,ai,0,10696,suggest,32,suggest,C,[],27,Yes,,Female,"English, Korean",Chrome,Windows,1080,1920,4.97065,
758,default,block2,emma,ai,0,6588,discover,33,discover,C,[],27,Yes,,Female,"English, Korean",Chrome,Windows,1080,1920,4.97065,
758,default,block2,olivia,ai,0,6080,inform,34,inform,C,[],27,Yes,,Female,"English, Korean",Chrome,Windows,1080,1920,4.97065,
758,default,block2,julian,ai,0,5745,see,35,see,C,[],27,Yes,,Female,"English, Korean",Chrome,Windows,1080,1920,4.97065,
758,default,block2,josh,ai,0,8231,confess,36,confess,C,[],27,Yes,,Female,"English, Korean",Chrome,Windows,1080,1920,4.97065,
758,default,block2,frank,ai,0,3854,admit,37,admit,C,[],27,Yes,,Female,"English, Korean",Chrome,Windows,1080,1920,4.97065,
758,default,block2,owen,ai,0,5766,be_right,38,be_right,C,[],27,Yes,,Female,"English, Korean",Chrome,Windows,1080,1920,4.97065,
758,default,block2,muffins,ai,1,4168,MC,39,MC,MC,[],27,Yes,,Female,"English, Korean",Chrome,Windows,1080,1920,4.97065,
758,default,block2,josie,ai,0,4246,hear,40,hear,C,[],27,Yes,,Female,"English, Korean",Chrome,Windows,1080,1920,4.97065,
758,default,block2,jayden,ai,0,3276,reveal,41,reveal,C,[],27,Yes,,Female,"English, Korean",Chrome,Windows,1080,1920,4.97065,
758,default,block2,emily,ai,0,3572,think,42,think,C,[],27,Yes,,Female,"English, Korean",Chrome,Windows,1080,1920,4.97065,
758,default,block2,tony,ai,0.03,4126,establish,43,establish,C,[],27,Yes,,Female,"English, Korean",Chrome,Windows,1080,1920,4.97065,
758,default,block2,garage,ai,1,2764,MC,44,MC,MC,[],27,Yes,,Female,"English, Korean",Chrome,Windows,1080,1920,4.97065,
758,default,block2,sophia,ai,0,2667,demonstrate,45,demonstrate,C,[],27,Yes,,Female,"English, Korean",Chrome,Windows,1080,1920,4.97065,
758,default,block2,isabella,ai,0,2723,confirm,46,confirm,C,[],27,Yes,,Female,"English, Korean",Chrome,Windows,1080,1920,4.97065,
758,default,block2,charley,ai,0,2460,say,47,say,C,[],27,Yes,,Female,"English, Korean",Chrome,Windows,1080,1920,4.97065,
758,default,block2,pizza,ai,1,3476,MC,48,MC,MC,[],27,Yes,,Female,"English, Korean",Chrome,Windows,1080,1920,4.97065,
758,default,block2,mary,ai,0,3454,prove,49,prove,C,[],27,Yes,,Female,"English, Korean",Chrome,Windows,1080,1920,4.97065,
758,default,block2,zoe,ai,0,3004,acknowledge,50,acknowledge,C,[],27,Yes,,Female,"English, Korean",Chrome,Windows,1080,1920,4.97065,
758,default,block2,grace,ai,0.01,2916,pretend,51,pretend,C,[],27,Yes,,Female,"English, Korean",Chrome,Windows,1080,1920,4.97065,
758,default,block2,danny,ai,0,2298,announce,52,announce,C,[],27,Yes,,Female,"English, Korean",Chrome,Windows,1080,1920,4.97065,
758,default,block2,kids,ai,1,3219,MC,53,MC,MC,[],27,Yes,,Female,"English, Korean",Chrome,Windows,1080,1920,4.97065,
758,default,block2,jackson,ai,0,3084,be_annoyed,54,be_annoyed,C,[],27,Yes,,Female,"English, Korean",Chrome,Windows,1080,1920,4.97065,
758,default,block2,ballet,ai,1,2596,MC,55,MC,MC,[],27,Yes,,Female,"English, Korean",Chrome,Windows,1080,1920,4.97065,
758,default,block2,mia,ai,0,2916,know,56,know,C,[],27,Yes,,Female,"English, Korean",Chrome,Windows,1080,1920,4.97065,
758,default,block2,hat,ai,1,3703,MC,57,MC,MC,[],27,Yes,,Female,"English, Korean",Chrome,Windows,1080,1920,4.97065,
1020,default,block1,jackson,projective,0.01,11715,hear,5,hear,C,[],49,Yes,The subtle differences in phrasing was interesting.,Female,English,Chrome,Windows,768,1366,13.522266666666669,
1020,default,block1,tony,projective,0.2,15418,announce,6,announce,C,[],49,Yes,The subtle differences in phrasing was interesting.,Female,English,Chrome,Windows,768,1366,13.522266666666669,
1020,default,block1,frank,projective,0.02,14176,pretend,7,pretend,C,[],49,Yes,The subtle differences in phrasing was interesting.,Female,English,Chrome,Windows,768,1366,13.522266666666669,
1020,default,block1,jayden,projective,0.02,13498,suggest,8,suggest,C,[],49,Yes,The subtle differences in phrasing was interesting.,Female,English,Chrome,Windows,768,1366,13.522266666666669,
1020,default,block1,ballet,projective,0.99,19422,MC,9,MC,MC,[],49,Yes,The subtle differences in phrasing was interesting.,Female,English,Chrome,Windows,768,1366,13.522266666666669,
1020,default,block1,mary,projective,0.49,17720,confess,10,confess,C,[],49,Yes,The subtle differences in phrasing was interesting.,Female,English,Chrome,Windows,768,1366,13.522266666666669,
1020,default,block1,emma,projective,0.02,15559,be_right,11,be_right,C,[],49,Yes,The subtle differences in phrasing was interesting.,Female,English,Chrome,Windows,768,1366,13.522266666666669,
1020,default,block1,josie,projective,0.76,10047,reveal,12,reveal,C,[],49,Yes,The subtle differences in phrasing was interesting.,Female,English,Chrome,Windows,768,1366,13.522266666666669,
1020,default,block1,charley,projective,0.97,12179,know,13,know,C,[],49,Yes,The subtle differences in phrasing was interesting.,Female,English,Chrome,Windows,768,1366,13.522266666666669,
1020,default,block1,josh,projective,0.98,10899,admit,14,admit,C,[],49,Yes,The subtle differences in phrasing was interesting.,Female,English,Chrome,Windows,768,1366,13.522266666666669,
1020,default,block1,sophia,projective,0.69,9504,discover,15,discover,C,[],49,Yes,The subtle differences in phrasing was interesting.,Female,English,Chrome,Windows,768,1366,13.522266666666669,
1020,default,block1,grace,projective,0.27,24810,confirm,16,confirm,C,[],49,Yes,The subtle differences in phrasing was interesting.,Female,English,Chrome,Windows,768,1366,13.522266666666669,
1020,default,block1,jon,projective,0.59,16018,be_annoyed,17,be_annoyed,C,[],49,Yes,The subtle differences in phrasing was interesting.,Female,English,Chrome,Windows,768,1366,13.522266666666669,
1020,default,block1,olivia,projective,0.12,9818,establish,18,establish,C,[],49,Yes,The subtle differences in phrasing was interesting.,Female,English,Chrome,Windows,768,1366,13.522266666666669,
1020,default,block1,mia,projective,0.64,24182,acknowledge,19,acknowledge,C,[],49,Yes,The subtle differences in phrasing was interesting.,Female,English,Chrome,Windows,768,1366,13.522266666666669,
1020,default,block1,zoe,projective,0.91,9648,prove,20,prove,C,[],49,Yes,The subtle differences in phrasing was interesting.,Female,English,Chrome,Windows,768,1366,13.522266666666669,
1020,default,block1,danny,projective,0.36,10912,see,21,see,C,[],49,Yes,The subtle differences in phrasing was interesting.,Female,English,Chrome,Windows,768,1366,13.522266666666669,
1020,default,block1,pizza,projective,0.99,8952,MC,22,MC,MC,[],49,Yes,The subtle differences in phrasing was interesting.,Female,English,Chrome,Windows,768,1366,13.522266666666669,
1020,default,block1,muffins,projective,0.98,7135,MC,23,MC,MC,[],49,Yes,The subtle differences in phrasing was interesting.,Female,English,Chrome,Windows,768,1366,13.522266666666669,
1020,default,block1,garage,projective,0.98,10720,MC,24,MC,MC,[],49,Yes,The subtle differences in phrasing was interesting.,Female,English,Chrome,Windows,768,1366,13.522266666666669,
1020,default,block1,julian,projective,0.88,10095,inform,25,inform,C,[],49,Yes,The subtle differences in phrasing was interesting.,Female,English,Chrome,Windows,768,1366,13.522266666666669,
1020,default,block1,owen,projective,0.95,12335,demonstrate,26,demonstrate,C,[],49,Yes,The subtle differences in phrasing was interesting.,Female,English,Chrome,Windows,768,1366,13.522266666666669,
1020,default,block1,isabella,projective,0.48,7393,say,27,say,C,[],49,Yes,The subtle differences in phrasing was interesting.,Female,English,Chrome,Windows,768,1366,13.522266666666669,
1020,default,block1,kids,projective,0.99,7622,MC,28,MC,MC,[],49,Yes,The subtle differences in phrasing was interesting.,Female,English,Chrome,Windows,768,1366,13.522266666666669,
1020,default,block1,emily,projective,0.29,13242,think,29,think,C,[],49,Yes,The subtle differences in phrasing was interesting.,Female,English,Chrome,Windows,768,1366,13.522266666666669,
1020,default,block1,hat,projective,0.98,6834,MC,30,MC,MC,[],49,Yes,The subtle differences in phrasing was interesting.,Female,English,Chrome,Windows,768,1366,13.522266666666669,
1020,default,block2,isabella,ai,0.48,20631,say,32,say,C,[],49,Yes,The subtle differences in phrasing was interesting.,Female,English,Chrome,Windows,768,1366,13.522266666666669,
1020,default,block2,jackson,ai,0.84,15063,hear,33,hear,C,[],49,Yes,The subtle differences in phrasing was interesting.,Female,English,Chrome,Windows,768,1366,13.522266666666669,
1020,default,block2,danny,ai,0.5,10722,see,34,see,C,[],49,Yes,The subtle differences in phrasing was interesting.,Female,English,Chrome,Windows,768,1366,13.522266666666669,
1020,default,block2,zoe,ai,0.39,10096,prove,35,prove,C,[],49,Yes,The subtle differences in phrasing was interesting.,Female,English,Chrome,Windows,768,1366,13.522266666666669,
1020,default,block2,charley,ai,0.25,13135,know,36,know,C,[],49,Yes,The subtle differences in phrasing was interesting.,Female,English,Chrome,Windows,768,1366,13.522266666666669,
1020,default,block2,muffins,ai,0.07,12571,MC,37,MC,MC,[],49,Yes,The subtle differences in phrasing was interesting.,Female,English,Chrome,Windows,768,1366,13.522266666666669,
1020,default,block2,hat,ai,0.99,10951,MC,38,MC,MC,[],49,Yes,The subtle differences in phrasing was interesting.,Female,English,Chrome,Windows,768,1366,13.522266666666669,
1020,default,block2,ballet,ai,1,9180,MC,39,MC,MC,[],49,Yes,The subtle differences in phrasing was interesting.,Female,English,Chrome,Windows,768,1366,13.522266666666669,
1020,default,block2,owen,ai,0.33,11060,demonstrate,40,demonstrate,C,[],49,Yes,The subtle differences in phrasing was interesting.,Female,English,Chrome,Windows,768,1366,13.522266666666669,
1020,default,block2,emma,ai,0.13,94960,be_right,41,be_right,C,[],49,Yes,The subtle differences in phrasing was interesting.,Female,English,Chrome,Windows,768,1366,13.522266666666669,
1020,default,block2,jon,ai,0.21,10092,be_annoyed,42,be_annoyed,C,[],49,Yes,The subtle differences in phrasing was interesting.,Female,English,Chrome,Windows,768,1366,13.522266666666669,
1020,default,block2,josie,ai,0.19,8940,reveal,43,reveal,C,[],49,Yes,The subtle differences in phrasing was interesting.,Female,English,Chrome,Windows,768,1366,13.522266666666669,
1020,default,block2,kids,ai,0.97,6795,MC,44,MC,MC,[],49,Yes,The subtle differences in phrasing was interesting.,Female,English,Chrome,Windows,768,1366,13.522266666666669,
1020,default,block2,grace,ai,0.04,9590,confirm,45,confirm,C,[],49,Yes,The subtle differences in phrasing was interesting.,Female,English,Chrome,Windows,768,1366,13.522266666666669,
1020,default,block2,jayden,ai,0.11,8517,suggest,46,suggest,C,[],49,Yes,The subtle differences in phrasing was interesting.,Female,English,Chrome,Windows,768,1366,13.522266666666669,
1020,default,block2,olivia,ai,0.09,9574,establish,47,establish,C,[],49,Yes,The subtle differences in phrasing was interesting.,Female,English,Chrome,Windows,768,1366,13.522266666666669,
1020,default,block2,tony,ai,0.07,7354,announce,48,announce,C,[],49,Yes,The subtle differences in phrasing was interesting.,Female,English,Chrome,Windows,768,1366,13.522266666666669,
1020,default,block2,garage,ai,0.99,9788,MC,49,MC,MC,[],49,Yes,The subtle differences in phrasing was interesting.,Female,English,Chrome,Windows,768,1366,13.522266666666669,
1020,default,block2,mia,ai,0.03,8840,acknowledge,50,acknowledge,C,[],49,Yes,The subtle differences in phrasing was interesting.,Female,English,Chrome,Windows,768,1366,13.522266666666669,
1020,default,block2,josh,ai,0.06,12034,admit,51,admit,C,[],49,Yes,The subtle differences in phrasing was interesting.,Female,English,Chrome,Windows,768,1366,13.522266666666669,
1020,default,block2,pizza,ai,0.99,6331,MC,52,MC,MC,[],49,Yes,The subtle differences in phrasing was interesting.,Female,English,Chrome,Windows,768,1366,13.522266666666669,
1020,default,block2,sophia,ai,0.01,6961,discover,53,discover,C,[],49,Yes,The subtle differences in phrasing was interesting.,Female,English,Chrome,Windows,768,1366,13.522266666666669,
1020,default,block2,emily,ai,0.02,12165,think,54,think,C,[],49,Yes,The subtle differences in phrasing was interesting.,Female,English,Chrome,Windows,768,1366,13.522266666666669,
1020,default,block2,frank,ai,0.02,11595,pretend,55,pretend,C,[],49,Yes,The subtle differences in phrasing was interesting.,Female,English,Chrome,Windows,768,1366,13.522266666666669,
1020,default,block2,mary,ai,0.02,21349,confess,56,confess,C,[],49,Yes,The subtle differences in phrasing was interesting.,Female,English,Chrome,Windows,768,1366,13.522266666666669,
1020,default,block2,julian,ai,0.01,7592,inform,57,inform,C,[],49,Yes,The subtle differences in phrasing was interesting.,Female,English,Chrome,Windows,768,1366,13.522266666666669,
731,default,block1,owen,projective,0.64,15613,demonstrate,5,demonstrate,C,[],26,Yes,,Female,English,Firefox,Windows,1080,1920,7.506766666666667,
731,default,block1,kids,projective,1,6841,MC,6,MC,MC,[],26,Yes,,Female,English,Firefox,Windows,1080,1920,7.506766666666667,
731,default,block1,josie,projective,0.34,14940,say,7,say,C,[],26,Yes,,Female,English,Firefox,Windows,1080,1920,7.506766666666667,
731,default,block1,pizza,projective,1,4598,MC,8,MC,MC,[],26,Yes,,Female,English,Firefox,Windows,1080,1920,7.506766666666667,
731,default,block1,danny,projective,0.83,12004,inform,9,inform,C,[],26,Yes,,Female,English,Firefox,Windows,1080,1920,7.506766666666667,
731,default,block1,emily,projective,0.9,4659,confess,10,confess,C,[],26,Yes,,Female,English,Firefox,Windows,1080,1920,7.506766666666667,
731,default,block1,jackson,projective,0.14,7903,prove,11,prove,C,[],26,Yes,,Female,English,Firefox,Windows,1080,1920,7.506766666666667,
731,default,block1,julian,projective,0.81,6078,discover,12,discover,C,[],26,Yes,,Female,English,Firefox,Windows,1080,1920,7.506766666666667,
731,default,block1,olivia,projective,0.29,7978,think,13,think,C,[],26,Yes,,Female,English,Firefox,Windows,1080,1920,7.506766666666667,
731,default,block1,garage,projective,1,4811,MC,14,MC,MC,[],26,Yes,,Female,English,Firefox,Windows,1080,1920,7.506766666666667,
731,default,block1,charley,projective,0.57,8465,establish,15,establish,C,[],26,Yes,,Female,English,Firefox,Windows,1080,1920,7.506766666666667,
731,default,block1,isabella,projective,1,5322,see,16,see,C,[],26,Yes,,Female,English,Firefox,Windows,1080,1920,7.506766666666667,
731,default,block1,jon,projective,0.11,4734,confirm,17,confirm,C,[],26,Yes,,Female,English,Firefox,Windows,1080,1920,7.506766666666667,
731,default,block1,emma,projective,0.34,6325,admit,18,admit,C,[],26,Yes,,Female,English,Firefox,Windows,1080,1920,7.506766666666667,
731,default,block1,mary,projective,0.14,7702,pretend,19,pretend,C,[],26,Yes,,Female,English,Firefox,Windows,1080,1920,7.506766666666667,
731,default,block1,tony,projective,0.12,7052,be_right,20,be_right,C,[],26,Yes,,Female,English,Firefox,Windows,1080,1920,7.506766666666667,
731,default,block1,sophia,projective,0.74,4963,be_annoyed,21,be_annoyed,C,[],26,Yes,,Female,English,Firefox,Windows,1080,1920,7.506766666666667,
731,default,block1,hat,projective,1,6212,MC,22,MC,MC,[],26,Yes,,Female,English,Firefox,Windows,1080,1920,7.506766666666667,
731,default,block1,mia,projective,0.15,6441,suggest,23,suggest,C,[],26,Yes,,Female,English,Firefox,Windows,1080,1920,7.506766666666667,
731,default,block1,zoe,projective,0.78,4127,know,24,know,C,[],26,Yes,,Female,English,Firefox,Windows,1080,1920,7.506766666666667,
731,default,block1,ballet,projective,1,3607,MC,25,MC,MC,[],26,Yes,,Female,English,Firefox,Windows,1080,1920,7.506766666666667,
731,default,block1,josh,projective,1,9590,announce,26,announce,C,[],26,Yes,,Female,English,Firefox,Windows,1080,1920,7.506766666666667,
731,default,block1,jayden,projective,0.79,8910,hear,27,hear,C,[],26,Yes,,Female,English,Firefox,Windows,1080,1920,7.506766666666667,
731,default,block1,grace,projective,0.79,6834,reveal,28,reveal,C,[],26,Yes,,Female,English,Firefox,Windows,1080,1920,7.506766666666667,
731,default,block1,frank,projective,0.55,6015,acknowledge,29,acknowledge,C,[],26,Yes,,Female,English,Firefox,Windows,1080,1920,7.506766666666667,
731,default,block1,muffins,projective,1,4686,MC,30,MC,MC,[],26,Yes,,Female,English,Firefox,Windows,1080,1920,7.506766666666667,
731,default,block2,pizza,ai,1,5598,MC,32,MC,MC,[],26,Yes,,Female,English,Firefox,Windows,1080,1920,7.506766666666667,
731,default,block2,danny,ai,0.27,16136,inform,33,inform,C,[],26,Yes,,Female,English,Firefox,Windows,1080,1920,7.506766666666667,
731,default,block2,mary,ai,0.35,11779,pretend,34,pretend,C,[],26,Yes,,Female,English,Firefox,Windows,1080,1920,7.506766666666667,
731,default,block2,kids,ai,1,9195,MC,35,MC,MC,[],26,Yes,,Female,English,Firefox,Windows,1080,1920,7.506766666666667,
731,default,block2,muffins,ai,1,5065,MC,36,MC,MC,[],26,Yes,,Female,English,Firefox,Windows,1080,1920,7.506766666666667,
731,default,block2,jayden,ai,0.76,9454,hear,37,hear,C,[],26,Yes,,Female,English,Firefox,Windows,1080,1920,7.506766666666667,
731,default,block2,grace,ai,0.72,9733,reveal,38,reveal,C,[],26,Yes,,Female,English,Firefox,Windows,1080,1920,7.506766666666667,
731,default,block2,jon,ai,0.34,9283,confirm,39,confirm,C,[],26,Yes,,Female,English,Firefox,Windows,1080,1920,7.506766666666667,
731,default,block2,jackson,ai,0.47,7193,prove,40,prove,C,[],26,Yes,,Female,English,Firefox,Windows,1080,1920,7.506766666666667,
731,default,block2,mia,ai,0.35,6037,suggest,41,suggest,C,[],26,Yes,,Female,English,Firefox,Windows,1080,1920,7.506766666666667,
731,default,block2,owen,ai,0.46,5266,demonstrate,42,demonstrate,C,[],26,Yes,,Female,English,Firefox,Windows,1080,1920,7.506766666666667,
731,default,block2,josh,ai,0.78,9164,announce,43,announce,C,[],26,Yes,,Female,English,Firefox,Windows,1080,1920,7.506766666666667,
731,default,block2,frank,ai,0.51,10636,acknowledge,44,acknowledge,C,[],26,Yes,,Female,English,Firefox,Windows,1080,1920,7.506766666666667,
731,default,block2,tony,ai,0.3,5188,be_right,45,be_right,C,[],26,Yes,,Female,English,Firefox,Windows,1080,1920,7.506766666666667,
731,default,block2,garage,ai,1,5757,MC,46,MC,MC,[],26,Yes,,Female,English,Firefox,Windows,1080,1920,7.506766666666667,
731,default,block2,olivia,ai,0.52,6404,think,47,think,C,[],26,Yes,,Female,English,Firefox,Windows,1080,1920,7.506766666666667,
731,default,block2,charley,ai,0.56,6456,establish,48,establish,C,[],26,Yes,,Female,English,Firefox,Windows,1080,1920,7.506766666666667,
731,default,block2,zoe,ai,0.83,6481,know,49,know,C,[],26,Yes,,Female,English,Firefox,Windows,1080,1920,7.506766666666667,
731,default,block2,hat,ai,1,4723,MC,50,MC,MC,[],26,Yes,,Female,English,Firefox,Windows,1080,1920,7.506766666666667,
731,default,block2,ballet,ai,1,2816,MC,51,MC,MC,[],26,Yes,,Female,English,Firefox,Windows,1080,1920,7.506766666666667,
731,default,block2,julian,ai,0.81,4718,discover,52,discover,C,[],26,Yes,,Female,English,Firefox,Windows,1080,1920,7.506766666666667,
731,default,block2,emma,ai,0.64,4231,admit,53,admit,C,[],26,Yes,,Female,English,Firefox,Windows,1080,1920,7.506766666666667,
731,default,block2,sophia,ai,0.8,6785,be_annoyed,54,be_annoyed,C,[],26,Yes,,Female,English,Firefox,Windows,1080,1920,7.506766666666667,
731,default,block2,isabella,ai,0.94,5730,see,55,see,C,[],26,Yes,,Female,English,Firefox,Windows,1080,1920,7.506766666666667,
731,default,block2,emily,ai,0.97,3208,confess,56,confess,C,[],26,Yes,,Female,English,Firefox,Windows,1080,1920,7.506766666666667,
731,default,block2,josie,ai,0.5,5140,say,57,say,C,[],26,Yes,,Female,English,Firefox,Windows,1080,1920,7.506766666666667,
977,default,block1,mary,projective,0.96,14352,know,5,know,C,[],39,Yes,,Female,English,Chrome,Windows,1080,1920,25.667766666666665,
977,default,block1,danny,projective,1,23634,announce,6,announce,C,[],39,Yes,,Female,English,Chrome,Windows,1080,1920,25.667766666666665,
977,default,block1,pizza,projective,0.96,113835,MC,7,MC,MC,[],39,Yes,,Female,English,Chrome,Windows,1080,1920,25.667766666666665,
977,default,block1,olivia,projective,0.98,12221,inform,8,inform,C,[],39,Yes,,Female,English,Chrome,Windows,1080,1920,25.667766666666665,
977,default,block1,kids,projective,0.98,5821,MC,9,MC,MC,[],39,Yes,,Female,English,Chrome,Windows,1080,1920,25.667766666666665,
977,default,block1,sophia,projective,0.96,7647,confess,10,confess,C,[],39,Yes,,Female,English,Chrome,Windows,1080,1920,25.667766666666665,
977,default,block1,josh,projective,0.97,653228,hear,11,hear,C,[],39,Yes,,Female,English,Chrome,Windows,1080,1920,25.667766666666665,
977,default,block1,jackson,projective,0.96,6993,acknowledge,12,acknowledge,C,[],39,Yes,,Female,English,Chrome,Windows,1080,1920,25.667766666666665,
977,default,block1,grace,projective,1,5240,be_right,13,be_right,C,[],39,Yes,,Female,English,Chrome,Windows,1080,1920,25.667766666666665,
977,default,block1,frank,projective,0.97,7515,admit,14,admit,C,[],39,Yes,,Female,English,Chrome,Windows,1080,1920,25.667766666666665,
977,default,block1,mia,projective,1,8458,be_annoyed,15,be_annoyed,C,[],39,Yes,,Female,English,Chrome,Windows,1080,1920,25.667766666666665,
977,default,block1,jon,projective,0.95,8679,pretend,16,pretend,C,[],39,Yes,,Female,English,Chrome,Windows,1080,1920,25.667766666666665,
977,default,block1,julian,projective,1,8689,confirm,17,confirm,C,[],39,Yes,,Female,English,Chrome,Windows,1080,1920,25.667766666666665,
977,default,block1,garage,projective,1,9380,MC,18,MC,MC,[],39,Yes,,Female,English,Chrome,Windows,1080,1920,25.667766666666665,
977,default,block1,zoe,projective,0.96,8108,discover,19,discover,C,[],39,Yes,,Female,English,Chrome,Windows,1080,1920,25.667766666666665,
977,default,block1,hat,projective,0.95,42975,MC,20,MC,MC,[],39,Yes,,Female,English,Chrome,Windows,1080,1920,25.667766666666665,
977,default,block1,jayden,projective,0.96,5410,reveal,21,reveal,C,[],39,Yes,,Female,English,Chrome,Windows,1080,1920,25.667766666666665,
977,default,block1,charley,projective,1,4319,suggest,22,suggest,C,[],39,Yes,,Female,English,Chrome,Windows,1080,1920,25.667766666666665,
977,default,block1,josie,projective,0.55,20320,see,23,see,C,[],39,Yes,,Female,English,Chrome,Windows,1080,1920,25.667766666666665,
977,default,block1,muffins,projective,0.98,6268,MC,24,MC,MC,[],39,Yes,,Female,English,Chrome,Windows,1080,1920,25.667766666666665,
977,default,block1,emily,projective,0.99,6269,say,25,say,C,[],39,Yes,,Female,English,Chrome,Windows,1080,1920,25.667766666666665,
977,default,block1,tony,projective,0.87,5808,establish,26,establish,C,[],39,Yes,,Female,English,Chrome,Windows,1080,1920,25.667766666666665,
977,default,block1,owen,projective,0.55,33242,demonstrate,27,demonstrate,C,[],39,Yes,,Female,English,Chrome,Windows,1080,1920,25.667766666666665,
977,default,block1,emma,projective,0.83,123210,think,28,think,C,[],39,Yes,,Female,English,Chrome,Windows,1080,1920,25.667766666666665,
977,default,block1,isabella,projective,1,4211,prove,29,prove,C,[],39,Yes,,Female,English,Chrome,Windows,1080,1920,25.667766666666665,
977,default,block1,ballet,projective,0.96,5033,MC,30,MC,MC,[],39,Yes,,Female,English,Chrome,Windows,1080,1920,25.667766666666665,
977,default,block2,owen,ai,0.08,15159,demonstrate,32,demonstrate,C,[],39,Yes,,Female,English,Chrome,Windows,1080,1920,25.667766666666665,
977,default,block2,zoe,ai,0.05,13199,discover,33,discover,C,[],39,Yes,,Female,English,Chrome,Windows,1080,1920,25.667766666666665,
977,default,block2,danny,ai,0.07,14398,announce,34,announce,C,[],39,Yes,,Female,English,Chrome,Windows,1080,1920,25.667766666666665,
977,default,block2,emily,ai,0.56,22357,say,35,say,C,[],39,Yes,,Female,English,Chrome,Windows,1080,1920,25.667766666666665,
977,default,block2,mia,ai,0.11,48042,be_annoyed,36,be_annoyed,C,[],39,Yes,,Female,English,Chrome,Windows,1080,1920,25.667766666666665,
977,default,block2,hat,ai,0.95,9981,MC,37,MC,MC,[],39,Yes,,Female,English,Chrome,Windows,1080,1920,25.667766666666665,
977,default,block2,tony,ai,0.05,5952,establish,38,establish,C,[],39,Yes,,Female,English,Chrome,Windows,1080,1920,25.667766666666665,
977,default,block2,kids,ai,0.99,14698,MC,39,MC,MC,[],39,Yes,,Female,English,Chrome,Windows,1080,1920,25.667766666666665,
977,default,block2,olivia,ai,0.07,4645,inform,40,inform,C,[],39,Yes,,Female,English,Chrome,Windows,1080,1920,25.667766666666665,
977,default,block2,jayden,ai,0,6182,reveal,41,reveal,C,[],39,Yes,,Female,English,Chrome,Windows,1080,1920,25.667766666666665,
977,default,block2,garage,ai,0.98,5893,MC,42,MC,MC,[],39,Yes,,Female,English,Chrome,Windows,1080,1920,25.667766666666665,
977,default,block2,josh,ai,0.09,10187,hear,43,hear,C,[],39,Yes,,Female,English,Chrome,Windows,1080,1920,25.667766666666665,
977,default,block2,emma,ai,0.06,4744,think,44,think,C,[],39,Yes,,Female,English,Chrome,Windows,1080,1920,25.667766666666665,
977,default,block2,muffins,ai,0.98,5602,MC,45,MC,MC,[],39,Yes,,Female,English,Chrome,Windows,1080,1920,25.667766666666665,
977,default,block2,josie,ai,0.06,3714,see,46,see,C,[],39,Yes,,Female,English,Chrome,Windows,1080,1920,25.667766666666665,
977,default,block2,jon,ai,0.05,5965,pretend,47,pretend,C,[],39,Yes,,Female,English,Chrome,Windows,1080,1920,25.667766666666665,
977,default,block2,jackson,ai,0.04,3811,acknowledge,48,acknowledge,C,[],39,Yes,,Female,English,Chrome,Windows,1080,1920,25.667766666666665,
977,default,block2,pizza,ai,0.95,6231,MC,49,MC,MC,[],39,Yes,,Female,English,Chrome,Windows,1080,1920,25.667766666666665,
977,default,block2,sophia,ai,0.05,3945,confess,50,confess,C,[],39,Yes,,Female,English,Chrome,Windows,1080,1920,25.667766666666665,
977,default,block2,julian,ai,0.12,4754,confirm,51,confirm,C,[],39,Yes,,Female,English,Chrome,Windows,1080,1920,25.667766666666665,
977,default,block2,ballet,ai,0.99,5298,MC,52,MC,MC,[],39,Yes,,Female,English,Chrome,Windows,1080,1920,25.667766666666665,
977,default,block2,isabella,ai,0.11,10622,prove,53,prove,C,[],39,Yes,,Female,English,Chrome,Windows,1080,1920,25.667766666666665,
977,default,block2,grace,ai,0.08,3811,be_right,54,be_right,C,[],39,Yes,,Female,English,Chrome,Windows,1080,1920,25.667766666666665,
977,default,block2,charley,ai,0.08,4005,suggest,55,suggest,C,[],39,Yes,,Female,English,Chrome,Windows,1080,1920,25.667766666666665,
977,default,block2,frank,ai,0,6074,admit,56,admit,C,[],39,Yes,,Female,English,Chrome,Windows,1080,1920,25.667766666666665,
977,default,block2,mary,ai,0.01,4330,know,57,know,C,[],39,Yes,,Female,English,Chrome,Windows,1080,1920,25.667766666666665,
706,default,block1,owen,ai,0.08,25926,see,5,see,C,[],30,Yes,"As an English major, I'm really curious about the outcome of this survey!",Female,English,Chrome,Windows,1080,1920,7.957516666666667,
706,default,block1,pizza,ai,0.94,4283,MC,6,MC,MC,[],30,Yes,"As an English major, I'm really curious about the outcome of this survey!",Female,English,Chrome,Windows,1080,1920,7.957516666666667,
706,default,block1,jayden,ai,0.09,10507,be_right,7,be_right,C,[],30,Yes,"As an English major, I'm really curious about the outcome of this survey!",Female,English,Chrome,Windows,1080,1920,7.957516666666667,
706,default,block1,julian,ai,0.15,10427,demonstrate,8,demonstrate,C,[],30,Yes,"As an English major, I'm really curious about the outcome of this survey!",Female,English,Chrome,Windows,1080,1920,7.957516666666667,
706,default,block1,josie,ai,0.11,6522,establish,9,establish,C,[],30,Yes,"As an English major, I'm really curious about the outcome of this survey!",Female,English,Chrome,Windows,1080,1920,7.957516666666667,
706,default,block1,zoe,ai,0.12,9944,pretend,10,pretend,C,[],30,Yes,"As an English major, I'm really curious about the outcome of this survey!",Female,English,Chrome,Windows,1080,1920,7.957516666666667,
706,default,block1,josh,ai,0.12,8537,confess,11,confess,C,[],30,Yes,"As an English major, I'm really curious about the outcome of this survey!",Female,English,Chrome,Windows,1080,1920,7.957516666666667,
706,default,block1,mary,ai,0.32,5825,confirm,12,confirm,C,[],30,Yes,"As an English major, I'm really curious about the outcome of this survey!",Female,English,Chrome,Windows,1080,1920,7.957516666666667,
706,default,block1,jackson,ai,0.07,6481,hear,13,hear,C,[],30,Yes,"As an English major, I'm really curious about the outcome of this survey!",Female,English,Chrome,Windows,1080,1920,7.957516666666667,
706,default,block1,emily,ai,0.17,8207,acknowledge,14,acknowledge,C,[],30,Yes,"As an English major, I'm really curious about the outcome of this survey!",Female,English,Chrome,Windows,1080,1920,7.957516666666667,
706,default,block1,tony,ai,0.08,5728,say,15,say,C,[],30,Yes,"As an English major, I'm really curious about the outcome of this survey!",Female,English,Chrome,Windows,1080,1920,7.957516666666667,
706,default,block1,sophia,ai,0.19,9407,reveal,16,reveal,C,[],30,Yes,"As an English major, I'm really curious about the outcome of this survey!",Female,English,Chrome,Windows,1080,1920,7.957516666666667,
706,default,block1,kids,ai,0.97,9755,MC,17,MC,MC,[],30,Yes,"As an English major, I'm really curious about the outcome of this survey!",Female,English,Chrome,Windows,1080,1920,7.957516666666667,
706,default,block1,garage,ai,0.89,8816,MC,18,MC,MC,[],30,Yes,"As an English major, I'm really curious about the outcome of this survey!",Female,English,Chrome,Windows,1080,1920,7.957516666666667,
706,default,block1,olivia,ai,0.1,6086,know,19,know,C,[],30,Yes,"As an English major, I'm really curious about the outcome of this survey!",Female,English,Chrome,Windows,1080,1920,7.957516666666667,
706,default,block1,frank,ai,0.13,5684,admit,20,admit,C,[],30,Yes,"As an English major, I'm really curious about the outcome of this survey!",Female,English,Chrome,Windows,1080,1920,7.957516666666667,
706,default,block1,danny,ai,0.1,6496,think,21,think,C,[],30,Yes,"As an English major, I'm really curious about the outcome of this survey!",Female,English,Chrome,Windows,1080,1920,7.957516666666667,
706,default,block1,muffins,ai,0.98,4332,MC,22,MC,MC,[],30,Yes,"As an English major, I'm really curious about the outcome of this survey!",Female,English,Chrome,Windows,1080,1920,7.957516666666667,
706,default,block1,hat,ai,0.98,5698,MC,23,MC,MC,[],30,Yes,"As an English major, I'm really curious about the outcome of this survey!",Female,English,Chrome,Windows,1080,1920,7.957516666666667,
706,default,block1,grace,ai,0.12,9582,be_annoyed,24,be_annoyed,C,[],30,Yes,"As an English major, I'm really curious about the outcome of this survey!",Female,English,Chrome,Windows,1080,1920,7.957516666666667,
706,default,block1,mia,ai,0.37,9329,discover,25,discover,C,[],30,Yes,"As an English major, I'm really curious about the outcome of this survey!",Female,English,Chrome,Windows,1080,1920,7.957516666666667,
706,default,block1,ballet,ai,0.98,4896,MC,26,MC,MC,[],30,Yes,"As an English major, I'm really curious about the outcome of this survey!",Female,English,Chrome,Windows,1080,1920,7.957516666666667,
706,default,block1,isabella,ai,0.26,10636,announce,27,announce,C,[],30,Yes,"As an English major, I'm really curious about the outcome of this survey!",Female,English,Chrome,Windows,1080,1920,7.957516666666667,
706,default,block1,emma,ai,0.12,5688,prove,28,prove,C,[],30,Yes,"As an English major, I'm really curious about the outcome of this survey!",Female,English,Chrome,Windows,1080,1920,7.957516666666667,
706,default,block1,charley,ai,0.49,9182,suggest,29,suggest,C,[],30,Yes,"As an English major, I'm really curious about the outcome of this survey!",Female,English,Chrome,Windows,1080,1920,7.957516666666667,
706,default,block1,jon,ai,0.14,6829,inform,30,inform,C,[],30,Yes,"As an English major, I'm really curious about the outcome of this survey!",Female,English,Chrome,Windows,1080,1920,7.957516666666667,
706,default,block2,tony,projective,0.18,12144,say,32,say,C,[],30,Yes,"As an English major, I'm really curious about the outcome of this survey!",Female,English,Chrome,Windows,1080,1920,7.957516666666667,
706,default,block2,kids,projective,0.88,8222,MC,33,MC,MC,[],30,Yes,"As an English major, I'm really curious about the outcome of this survey!",Female,English,Chrome,Windows,1080,1920,7.957516666666667,
706,default,block2,emma,projective,0.13,8645,prove,34,prove,C,[],30,Yes,"As an English major, I'm really curious about the outcome of this survey!",Female,English,Chrome,Windows,1080,1920,7.957516666666667,
706,default,block2,josh,projective,0.74,8114,confess,35,confess,C,[],30,Yes,"As an English major, I'm really curious about the outcome of this survey!",Female,English,Chrome,Windows,1080,1920,7.957516666666667,
706,default,block2,frank,projective,0.72,8946,admit,36,admit,C,[],30,Yes,"As an English major, I'm really curious about the outcome of this survey!",Female,English,Chrome,Windows,1080,1920,7.957516666666667,
706,default,block2,sophia,projective,0.77,6554,reveal,37,reveal,C,[],30,Yes,"As an English major, I'm really curious about the outcome of this survey!",Female,English,Chrome,Windows,1080,1920,7.957516666666667,
706,default,block2,grace,projective,0.9,4597,be_annoyed,38,be_annoyed,C,[],30,Yes,"As an English major, I'm really curious about the outcome of this survey!",Female,English,Chrome,Windows,1080,1920,7.957516666666667,
706,default,block2,owen,projective,0.95,9378,see,39,see,C,[],30,Yes,"As an English major, I'm really curious about the outcome of this survey!",Female,English,Chrome,Windows,1080,1920,7.957516666666667,
706,default,block2,jackson,projective,0.63,7795,hear,40,hear,C,[],30,Yes,"As an English major, I'm really curious about the outcome of this survey!",Female,English,Chrome,Windows,1080,1920,7.957516666666667,
706,default,block2,hat,projective,1,4112,MC,41,MC,MC,[],30,Yes,"As an English major, I'm really curious about the outcome of this survey!",Female,English,Chrome,Windows,1080,1920,7.957516666666667,
706,default,block2,mary,projective,0.63,7753,confirm,42,confirm,C,[],30,Yes,"As an English major, I'm really curious about the outcome of this survey!",Female,English,Chrome,Windows,1080,1920,7.957516666666667,
706,default,block2,jayden,projective,0.64,13917,be_right,43,be_right,C,[],30,Yes,"As an English major, I'm really curious about the outcome of this survey!",Female,English,Chrome,Windows,1080,1920,7.957516666666667,
706,default,block2,julian,projective,0.76,4343,demonstrate,44,demonstrate,C,[],30,Yes,"As an English major, I'm really curious about the outcome of this survey!",Female,English,Chrome,Windows,1080,1920,7.957516666666667,
706,default,block2,pizza,projective,0.99,4337,MC,45,MC,MC,[],30,Yes,"As an English major, I'm really curious about the outcome of this survey!",Female,English,Chrome,Windows,1080,1920,7.957516666666667,
706,default,block2,ballet,projective,0.99,5672,MC,46,MC,MC,[],30,Yes,"As an English major, I'm really curious about the outcome of this survey!",Female,English,Chrome,Windows,1080,1920,7.957516666666667,
706,default,block2,muffins,projective,0.99,3199,MC,47,MC,MC,[],30,Yes,"As an English major, I'm really curious about the outcome of this survey!",Female,English,Chrome,Windows,1080,1920,7.957516666666667,
706,default,block2,zoe,projective,0.19,9970,pretend,48,pretend,C,[],30,Yes,"As an English major, I'm really curious about the outcome of this survey!",Female,English,Chrome,Windows,1080,1920,7.957516666666667,
706,default,block2,josie,projective,0.67,8367,establish,49,establish,C,[],30,Yes,"As an English major, I'm really curious about the outcome of this survey!",Female,English,Chrome,Windows,1080,1920,7.957516666666667,
706,default,block2,jon,projective,0.77,4372,inform,50,inform,C,[],30,Yes,"As an English major, I'm really curious about the outcome of this survey!",Female,English,Chrome,Windows,1080,1920,7.957516666666667,
706,default,block2,isabella,projective,0.8,5294,announce,51,announce,C,[],30,Yes,"As an English major, I'm really curious about the outcome of this survey!",Female,English,Chrome,Windows,1080,1920,7.957516666666667,
706,default,block2,charley,projective,0.53,4388,suggest,52,suggest,C,[],30,Yes,"As an English major, I'm really curious about the outcome of this survey!",Female,English,Chrome,Windows,1080,1920,7.957516666666667,
706,default,block2,olivia,projective,0.81,5465,know,53,know,C,[],30,Yes,"As an English major, I'm really curious about the outcome of this survey!",Female,English,Chrome,Windows,1080,1920,7.957516666666667,
706,default,block2,mia,projective,0.81,3146,discover,54,discover,C,[],30,Yes,"As an English major, I'm really curious about the outcome of this survey!",Female,English,Chrome,Windows,1080,1920,7.957516666666667,
706,default,block2,danny,projective,0.14,3946,think,55,think,C,[],30,Yes,"As an English major, I'm really curious about the outcome of this survey!",Female,English,Chrome,Windows,1080,1920,7.957516666666667,
706,default,block2,garage,projective,0.99,2478,MC,56,MC,MC,[],30,Yes,"As an English major, I'm really curious about the outcome of this survey!",Female,English,Chrome,Windows,1080,1920,7.957516666666667,
706,default,block2,emily,projective,0.63,5997,acknowledge,57,acknowledge,C,[],30,Yes,"As an English major, I'm really curious about the outcome of this survey!",Female,English,Chrome,Windows,1080,1920,7.957516666666667,
912,default,block1,zoe,ai,0.16,22825,suggest,5,suggest,C,[],27,Yes,,Female,English,Chrome,Windows,1080,1920,6.795333333333334,
912,default,block1,muffins,ai,0.88,11918,MC,6,MC,MC,[],27,Yes,,Female,English,Chrome,Windows,1080,1920,6.795333333333334,
912,default,block1,mary,ai,0.13,8344,be_annoyed,7,be_annoyed,C,[],27,Yes,,Female,English,Chrome,Windows,1080,1920,6.795333333333334,
912,default,block1,grace,ai,0.15,15246,discover,8,discover,C,[],27,Yes,,Female,English,Chrome,Windows,1080,1920,6.795333333333334,
912,default,block1,pizza,ai,0.87,5874,MC,9,MC,MC,[],27,Yes,,Female,English,Chrome,Windows,1080,1920,6.795333333333334,
912,default,block1,mia,ai,0,12994,confess,10,confess,C,[],27,Yes,,Female,English,Chrome,Windows,1080,1920,6.795333333333334,
912,default,block1,ballet,ai,1,4764,MC,11,MC,MC,[],27,Yes,,Female,English,Chrome,Windows,1080,1920,6.795333333333334,
912,default,block1,kids,ai,1,4894,MC,12,MC,MC,[],27,Yes,,Female,English,Chrome,Windows,1080,1920,6.795333333333334,
912,default,block1,isabella,ai,0,10506,establish,13,establish,C,[],27,Yes,,Female,English,Chrome,Windows,1080,1920,6.795333333333334,
912,default,block1,jon,ai,0,8954,confirm,14,confirm,C,[],27,Yes,,Female,English,Chrome,Windows,1080,1920,6.795333333333334,
912,default,block1,emily,ai,0,5196,acknowledge,15,acknowledge,C,[],27,Yes,,Female,English,Chrome,Windows,1080,1920,6.795333333333334,
912,default,block1,sophia,ai,0,4874,prove,16,prove,C,[],27,Yes,,Female,English,Chrome,Windows,1080,1920,6.795333333333334,
912,default,block1,josh,ai,0,5074,announce,17,announce,C,[],27,Yes,,Female,English,Chrome,Windows,1080,1920,6.795333333333334,
912,default,block1,jackson,ai,0,4516,be_right,18,be_right,C,[],27,Yes,,Female,English,Chrome,Windows,1080,1920,6.795333333333334,
912,default,block1,julian,ai,0,5124,see,19,see,C,[],27,Yes,,Female,English,Chrome,Windows,1080,1920,6.795333333333334,
912,default,block1,olivia,ai,0,8774,admit,20,admit,C,[],27,Yes,,Female,English,Chrome,Windows,1080,1920,6.795333333333334,
912,default,block1,tony,ai,0,3964,demonstrate,21,demonstrate,C,[],27,Yes,,Female,English,Chrome,Windows,1080,1920,6.795333333333334,
912,default,block1,danny,ai,0,4736,inform,22,inform,C,[],27,Yes,,Female,English,Chrome,Windows,1080,1920,6.795333333333334,
912,default,block1,garage,ai,1,5264,MC,23,MC,MC,[],27,Yes,,Female,English,Chrome,Windows,1080,1920,6.795333333333334,
912,default,block1,owen,ai,0,4074,hear,24,hear,C,[],27,Yes,,Female,English,Chrome,Windows,1080,1920,6.795333333333334,
912,default,block1,charley,ai,0,4044,pretend,25,pretend,C,[],27,Yes,,Female,English,Chrome,Windows,1080,1920,6.795333333333334,
912,default,block1,frank,ai,0,4064,think,26,think,C,[],27,Yes,,Female,English,Chrome,Windows,1080,1920,6.795333333333334,
912,default,block1,emma,ai,0,3084,say,27,say,C,[],27,Yes,,Female,English,Chrome,Windows,1080,1920,6.795333333333334,
912,default,block1,josie,ai,0,3784,know,28,know,C,[],27,Yes,,Female,English,Chrome,Windows,1080,1920,6.795333333333334,
912,default,block1,hat,ai,1,5956,MC,29,MC,MC,[],27,Yes,,Female,English,Chrome,Windows,1080,1920,6.795333333333334,
912,default,block1,jayden,ai,0,15134,reveal,30,reveal,C,[],27,Yes,,Female,English,Chrome,Windows,1080,1920,6.795333333333334,
912,default,block2,ballet,projective,1,10685,MC,32,MC,MC,[],27,Yes,,Female,English,Chrome,Windows,1080,1920,6.795333333333334,
912,default,block2,muffins,projective,1,5014,MC,33,MC,MC,[],27,Yes,,Female,English,Chrome,Windows,1080,1920,6.795333333333334,
912,default,block2,josh,projective,0,18283,announce,34,announce,C,[],27,Yes,,Female,English,Chrome,Windows,1080,1920,6.795333333333334,
912,default,block2,zoe,projective,0,3783,suggest,35,suggest,C,[],27,Yes,,Female,English,Chrome,Windows,1080,1920,6.795333333333334,
912,default,block2,emily,projective,0.83,6254,acknowledge,36,acknowledge,C,[],27,Yes,,Female,English,Chrome,Windows,1080,1920,6.795333333333334,
912,default,block2,danny,projective,0.75,4976,inform,37,inform,C,[],27,Yes,,Female,English,Chrome,Windows,1080,1920,6.795333333333334,
912,default,block2,emma,projective,0.28,5544,say,38,say,C,[],27,Yes,,Female,English,Chrome,Windows,1080,1920,6.795333333333334,
912,default,block2,jon,projective,0.35,7134,confirm,39,confirm,C,[],27,Yes,,Female,English,Chrome,Windows,1080,1920,6.795333333333334,
912,default,block2,josie,projective,0.83,3616,know,40,know,C,[],27,Yes,,Female,English,Chrome,Windows,1080,1920,6.795333333333334,
912,default,block2,kids,projective,1,4788,MC,41,MC,MC,[],27,Yes,,Female,English,Chrome,Windows,1080,1920,6.795333333333334,
912,default,block2,jayden,projective,0.6,4284,reveal,42,reveal,C,[],27,Yes,,Female,English,Chrome,Windows,1080,1920,6.795333333333334,
912,default,block2,tony,projective,0.26,3013,demonstrate,43,demonstrate,C,[],27,Yes,,Female,English,Chrome,Windows,1080,1920,6.795333333333334,
912,default,block2,grace,projective,0.62,3925,discover,44,discover,C,[],27,Yes,,Female,English,Chrome,Windows,1080,1920,6.795333333333334,
912,default,block2,mary,projective,0.94,5095,be_annoyed,45,be_annoyed,C,[],27,Yes,,Female,English,Chrome,Windows,1080,1920,6.795333333333334,
912,default,block2,owen,projective,0.96,5225,hear,46,hear,C,[],27,Yes,,Female,English,Chrome,Windows,1080,1920,6.795333333333334,
912,default,block2,sophia,projective,0.18,4555,prove,47,prove,C,[],27,Yes,,Female,English,Chrome,Windows,1080,1920,6.795333333333334,
912,default,block2,hat,projective,1,2775,MC,48,MC,MC,[],27,Yes,,Female,English,Chrome,Windows,1080,1920,6.795333333333334,
912,default,block2,pizza,projective,1,2615,MC,49,MC,MC,[],27,Yes,,Female,English,Chrome,Windows,1080,1920,6.795333333333334,
912,default,block2,julian,projective,0.52,6416,see,50,see,C,[],27,Yes,,Female,English,Chrome,Windows,1080,1920,6.795333333333334,
912,default,block2,charley,projective,0,3154,pretend,51,pretend,C,[],27,Yes,,Female,English,Chrome,Windows,1080,1920,6.795333333333334,
912,default,block2,isabella,projective,0.51,10125,establish,52,establish,C,[],27,Yes,,Female,English,Chrome,Windows,1080,1920,6.795333333333334,
912,default,block2,frank,projective,0.2,3497,think,53,think,C,[],27,Yes,,Female,English,Chrome,Windows,1080,1920,6.795333333333334,
912,default,block2,jackson,projective,0.21,3194,be_right,54,be_right,C,[],27,Yes,,Female,English,Chrome,Windows,1080,1920,6.795333333333334,
912,default,block2,mia,projective,0.44,5515,confess,55,confess,C,[],27,Yes,,Female,English,Chrome,Windows,1080,1920,6.795333333333334,
912,default,block2,olivia,projective,0.66,3586,admit,56,admit,C,[],27,Yes,,Female,English,Chrome,Windows,1080,1920,6.795333333333334,
912,default,block2,garage,projective,1,2506,MC,57,MC,MC,[],27,Yes,,Female,English,Chrome,Windows,1080,1920,6.795333333333334,
756,default,block1,olivia,ai,0.77,22794,reveal,5,reveal,C,[],26,Yes,,Female,English,Chrome,Windows,1080,1920,10.2499,
756,default,block1,frank,ai,0.55,13794,discover,6,discover,C,[],26,Yes,,Female,English,Chrome,Windows,1080,1920,10.2499,
756,default,block1,ballet,ai,1,8056,MC,7,MC,MC,[],26,Yes,,Female,English,Chrome,Windows,1080,1920,10.2499,
756,default,block1,jon,ai,0.63,8153,admit,8,admit,C,[],26,Yes,,Female,English,Chrome,Windows,1080,1920,10.2499,
756,default,block1,jackson,ai,0.55,9556,inform,9,inform,C,[],26,Yes,,Female,English,Chrome,Windows,1080,1920,10.2499,
756,default,block1,muffins,ai,0.96,8616,MC,10,MC,MC,[],26,Yes,,Female,English,Chrome,Windows,1080,1920,10.2499,
756,default,block1,josie,ai,0.69,6932,prove,11,prove,C,[],26,Yes,,Female,English,Chrome,Windows,1080,1920,10.2499,
756,default,block1,pizza,ai,1,6106,MC,12,MC,MC,[],26,Yes,,Female,English,Chrome,Windows,1080,1920,10.2499,
756,default,block1,josh,ai,0.57,16240,be_annoyed,13,be_annoyed,C,[],26,Yes,,Female,English,Chrome,Windows,1080,1920,10.2499,
756,default,block1,hat,ai,1,4861,MC,14,MC,MC,[],26,Yes,,Female,English,Chrome,Windows,1080,1920,10.2499,
756,default,block1,isabella,ai,0.64,5918,suggest,15,suggest,C,[],26,Yes,,Female,English,Chrome,Windows,1080,1920,10.2499,
756,default,block1,emma,ai,0.67,5243,see,16,see,C,[],26,Yes,,Female,English,Chrome,Windows,1080,1920,10.2499,
756,default,block1,zoe,ai,0.63,12946,think,17,think,C,[],26,Yes,,Female,English,Chrome,Windows,1080,1920,10.2499,
756,default,block1,mia,ai,0.62,7036,confirm,18,confirm,C,[],26,Yes,,Female,English,Chrome,Windows,1080,1920,10.2499,
756,default,block1,tony,ai,0.64,5004,establish,19,establish,C,[],26,Yes,,Female,English,Chrome,Windows,1080,1920,10.2499,
756,default,block1,charley,ai,0.68,8274,demonstrate,20,demonstrate,C,[],26,Yes,,Female,English,Chrome,Windows,1080,1920,10.2499,
756,default,block1,kids,ai,1,5916,MC,21,MC,MC,[],26,Yes,,Female,English,Chrome,Windows,1080,1920,10.2499,
756,default,block1,danny,ai,0.64,4907,acknowledge,22,acknowledge,C,[],26,Yes,,Female,English,Chrome,Windows,1080,1920,10.2499,
756,default,block1,garage,ai,1,8304,MC,23,MC,MC,[],26,Yes,,Female,English,Chrome,Windows,1080,1920,10.2499,
756,default,block1,julian,ai,0.6,7585,say,24,say,C,[],26,Yes,,Female,English,Chrome,Windows,1080,1920,10.2499,
756,default,block1,owen,ai,0.69,12046,be_right,25,be_right,C,[],26,Yes,,Female,English,Chrome,Windows,1080,1920,10.2499,
756,default,block1,emily,ai,0.65,7621,pretend,26,pretend,C,[],26,Yes,,Female,English,Chrome,Windows,1080,1920,10.2499,
756,default,block1,jayden,ai,0.67,9361,know,27,know,C,[],26,Yes,,Female,English,Chrome,Windows,1080,1920,10.2499,
756,default,block1,mary,ai,0.63,7785,announce,28,announce,C,[],26,Yes,,Female,English,Chrome,Windows,1080,1920,10.2499,
756,default,block1,grace,ai,0.68,9416,confess,29,confess,C,[],26,Yes,,Female,English,Chrome,Windows,1080,1920,10.2499,
756,default,block1,sophia,ai,0.66,5235,hear,30,hear,C,[],26,Yes,,Female,English,Chrome,Windows,1080,1920,10.2499,
756,default,block2,mia,projective,1,17964,confirm,32,confirm,C,[],26,Yes,,Female,English,Chrome,Windows,1080,1920,10.2499,
756,default,block2,emma,projective,0.25,12437,see,33,see,C,[],26,Yes,,Female,English,Chrome,Windows,1080,1920,10.2499,
756,default,block2,kids,projective,1,7073,MC,34,MC,MC,[],26,Yes,,Female,English,Chrome,Windows,1080,1920,10.2499,
756,default,block2,tony,projective,0.2,20472,establish,35,establish,C,[],26,Yes,,Female,English,Chrome,Windows,1080,1920,10.2499,
756,default,block2,muffins,projective,0.97,7546,MC,36,MC,MC,[],26,Yes,,Female,English,Chrome,Windows,1080,1920,10.2499,
756,default,block2,olivia,projective,0.94,38541,reveal,37,reveal,C,[],26,Yes,,Female,English,Chrome,Windows,1080,1920,10.2499,
756,default,block2,ballet,projective,0.96,11793,MC,38,MC,MC,[],26,Yes,,Female,English,Chrome,Windows,1080,1920,10.2499,
756,default,block2,jon,projective,0.59,10912,admit,39,admit,C,[],26,Yes,,Female,English,Chrome,Windows,1080,1920,10.2499,
756,default,block2,josh,projective,0.64,11195,be_annoyed,40,be_annoyed,C,[],26,Yes,,Female,English,Chrome,Windows,1080,1920,10.2499,
756,default,block2,julian,projective,0.71,5955,say,41,say,C,[],26,Yes,,Female,English,Chrome,Windows,1080,1920,10.2499,
756,default,block2,owen,projective,0.64,9324,be_right,42,be_right,C,[],26,Yes,,Female,English,Chrome,Windows,1080,1920,10.2499,
756,default,block2,grace,projective,0.64,10412,confess,43,confess,C,[],26,Yes,,Female,English,Chrome,Windows,1080,1920,10.2499,
756,default,block2,frank,projective,0.54,10576,discover,44,discover,C,[],26,Yes,,Female,English,Chrome,Windows,1080,1920,10.2499,
756,default,block2,isabella,projective,0.61,6998,suggest,45,suggest,C,[],26,Yes,,Female,English,Chrome,Windows,1080,1920,10.2499,
756,default,block2,jackson,projective,0.69,12737,inform,46,inform,C,[],26,Yes,,Female,English,Chrome,Windows,1080,1920,10.2499,
756,default,block2,emily,projective,0.18,9249,pretend,47,pretend,C,[],26,Yes,,Female,English,Chrome,Windows,1080,1920,10.2499,
756,default,block2,mary,projective,0.47,10689,announce,48,announce,C,[],26,Yes,,Female,English,Chrome,Windows,1080,1920,10.2499,
756,default,block2,danny,projective,0.59,29817,acknowledge,49,acknowledge,C,[],26,Yes,,Female,English,Chrome,Windows,1080,1920,10.2499,
756,default,block2,garage,projective,0.97,6331,MC,50,MC,MC,[],26,Yes,,Female,English,Chrome,Windows,1080,1920,10.2499,
756,default,block2,zoe,projective,0.59,9916,think,51,think,C,[],26,Yes,,Female,English,Chrome,Windows,1080,1920,10.2499,
756,default,block2,charley,projective,0.41,19227,demonstrate,52,demonstrate,C,[],26,Yes,,Female,English,Chrome,Windows,1080,1920,10.2499,
756,default,block2,pizza,projective,0.97,5505,MC,53,MC,MC,[],26,Yes,,Female,English,Chrome,Windows,1080,1920,10.2499,
756,default,block2,hat,projective,0.96,4837,MC,54,MC,MC,[],26,Yes,,Female,English,Chrome,Windows,1080,1920,10.2499,
756,default,block2,josie,projective,0.42,10510,prove,55,prove,C,[],26,Yes,,Female,English,Chrome,Windows,1080,1920,10.2499,
756,default,block2,jayden,projective,0.89,10037,know,56,know,C,[],26,Yes,,Female,English,Chrome,Windows,1080,1920,10.2499,
756,default,block2,sophia,projective,0.8,8372,hear,57,hear,C,[],26,Yes,,Female,English,Chrome,Windows,1080,1920,10.2499,
954,default,block1,julian,projective,0.32,19145,discover,5,discover,C,[],40,Yes,,Male,English,Chrome,Windows,2160,3840,10.905766666666668,
954,default,block1,mia,projective,0.62,15093,reveal,6,reveal,C,[],40,Yes,,Male,English,Chrome,Windows,2160,3840,10.905766666666668,
954,default,block1,olivia,projective,0.33,11376,establish,7,establish,C,[],40,Yes,,Male,English,Chrome,Windows,2160,3840,10.905766666666668,
954,default,block1,hat,projective,1,11862,MC,8,MC,MC,[],40,Yes,,Male,English,Chrome,Windows,2160,3840,10.905766666666668,
954,default,block1,tony,projective,0.65,9446,know,9,know,C,[],40,Yes,,Male,English,Chrome,Windows,2160,3840,10.905766666666668,
954,default,block1,josh,projective,0.76,10372,inform,10,inform,C,[],40,Yes,,Male,English,Chrome,Windows,2160,3840,10.905766666666668,
954,default,block1,jon,projective,0.39,10393,say,11,say,C,[],40,Yes,,Male,English,Chrome,Windows,2160,3840,10.905766666666668,
954,default,block1,isabella,projective,0.36,15150,demonstrate,12,demonstrate,C,[],40,Yes,,Male,English,Chrome,Windows,2160,3840,10.905766666666668,
954,default,block1,danny,projective,0.31,10228,suggest,13,suggest,C,[],40,Yes,,Male,English,Chrome,Windows,2160,3840,10.905766666666668,
954,default,block1,mary,projective,0.75,5449,admit,14,admit,C,[],40,Yes,,Male,English,Chrome,Windows,2160,3840,10.905766666666668,
954,default,block1,muffins,projective,0.97,6078,MC,15,MC,MC,[],40,Yes,,Male,English,Chrome,Windows,2160,3840,10.905766666666668,
954,default,block1,zoe,projective,0.43,11819,prove,16,prove,C,[],40,Yes,,Male,English,Chrome,Windows,2160,3840,10.905766666666668,
954,default,block1,emma,projective,0.63,19623,be_annoyed,17,be_annoyed,C,[],40,Yes,,Male,English,Chrome,Windows,2160,3840,10.905766666666668,
954,default,block1,kids,projective,1,10476,MC,18,MC,MC,[],40,Yes,,Male,English,Chrome,Windows,2160,3840,10.905766666666668,
954,default,block1,charley,projective,0.29,8144,think,19,think,C,[],40,Yes,,Male,English,Chrome,Windows,2160,3840,10.905766666666668,
954,default,block1,garage,projective,0.98,7682,MC,20,MC,MC,[],40,Yes,,Male,English,Chrome,Windows,2160,3840,10.905766666666668,
954,default,block1,jackson,projective,0.61,10939,see,21,see,C,[],40,Yes,,Male,English,Chrome,Windows,2160,3840,10.905766666666668,
954,default,block1,grace,projective,0.27,13761,pretend,22,pretend,C,[],40,Yes,,Male,English,Chrome,Windows,2160,3840,10.905766666666668,
954,default,block1,pizza,projective,1,6945,MC,23,MC,MC,[],40,Yes,,Male,English,Chrome,Windows,2160,3840,10.905766666666668,
954,default,block1,owen,projective,0.71,14253,hear,24,hear,C,[],40,Yes,,Male,English,Chrome,Windows,2160,3840,10.905766666666668,
954,default,block1,ballet,projective,0.97,6220,MC,25,MC,MC,[],40,Yes,,Male,English,Chrome,Windows,2160,3840,10.905766666666668,
954,default,block1,josie,projective,0.77,6962,announce,26,announce,C,[],40,Yes,,Male,English,Chrome,Windows,2160,3840,10.905766666666668,
954,default,block1,emily,projective,0.14,10839,be_right,27,be_right,C,[],40,Yes,,Male,English,Chrome,Windows,2160,3840,10.905766666666668,
954,default,block1,sophia,projective,0.82,11816,confirm,28,confirm,C,[],40,Yes,,Male,English,Chrome,Windows,2160,3840,10.905766666666668,
954,default,block1,jayden,projective,0.83,7676,confess,29,confess,C,[],40,Yes,,Male,English,Chrome,Windows,2160,3840,10.905766666666668,
954,default,block1,frank,projective,0.71,28655,acknowledge,30,acknowledge,C,[],40,Yes,,Male,English,Chrome,Windows,2160,3840,10.905766666666668,
954,default,block2,muffins,ai,0.97,8967,MC,32,MC,MC,[],40,Yes,,Male,English,Chrome,Windows,2160,3840,10.905766666666668,
954,default,block2,mia,ai,0.99,8725,reveal,33,reveal,C,[],40,Yes,,Male,English,Chrome,Windows,2160,3840,10.905766666666668,
954,default,block2,emma,ai,0.46,31583,be_annoyed,34,be_annoyed,C,[],40,Yes,,Male,English,Chrome,Windows,2160,3840,10.905766666666668,
954,default,block2,danny,ai,0.44,9986,suggest,35,suggest,C,[],40,Yes,,Male,English,Chrome,Windows,2160,3840,10.905766666666668,
954,default,block2,julian,ai,0.39,6417,discover,36,discover,C,[],40,Yes,,Male,English,Chrome,Windows,2160,3840,10.905766666666668,
954,default,block2,pizza,ai,0.93,7594,MC,37,MC,MC,[],40,Yes,,Male,English,Chrome,Windows,2160,3840,10.905766666666668,
954,default,block2,jon,ai,0.49,5767,say,38,say,C,[],40,Yes,,Male,English,Chrome,Windows,2160,3840,10.905766666666668,
954,default,block2,sophia,ai,0.13,17117,confirm,39,confirm,C,[],40,Yes,,Male,English,Chrome,Windows,2160,3840,10.905766666666668,
954,default,block2,isabella,ai,0.25,7642,demonstrate,40,demonstrate,C,[],40,Yes,,Male,English,Chrome,Windows,2160,3840,10.905766666666668,
954,default,block2,mary,ai,0.3,8429,admit,41,admit,C,[],40,Yes,,Male,English,Chrome,Windows,2160,3840,10.905766666666668,
954,default,block2,emily,ai,0.32,7843,be_right,42,be_right,C,[],40,Yes,,Male,English,Chrome,Windows,2160,3840,10.905766666666668,
954,default,block2,tony,ai,0.34,6386,know,43,know,C,[],40,Yes,,Male,English,Chrome,Windows,2160,3840,10.905766666666668,
954,default,block2,josh,ai,0.26,6416,inform,44,inform,C,[],40,Yes,,Male,English,Chrome,Windows,2160,3840,10.905766666666668,
954,default,block2,grace,ai,0.34,7758,pretend,45,pretend,C,[],40,Yes,,Male,English,Chrome,Windows,2160,3840,10.905766666666668,
954,default,block2,kids,ai,0.96,7261,MC,46,MC,MC,[],40,Yes,,Male,English,Chrome,Windows,2160,3840,10.905766666666668,
954,default,block2,olivia,ai,0.28,8405,establish,47,establish,C,[],40,Yes,,Male,English,Chrome,Windows,2160,3840,10.905766666666668,
954,default,block2,frank,ai,0.24,6826,acknowledge,48,acknowledge,C,[],40,Yes,,Male,English,Chrome,Windows,2160,3840,10.905766666666668,
954,default,block2,zoe,ai,0.27,6742,prove,49,prove,C,[],40,Yes,,Male,English,Chrome,Windows,2160,3840,10.905766666666668,
954,default,block2,charley,ai,0.25,8197,think,50,think,C,[],40,Yes,,Male,English,Chrome,Windows,2160,3840,10.905766666666668,
954,default,block2,hat,ai,0.97,7726,MC,51,MC,MC,[],40,Yes,,Male,English,Chrome,Windows,2160,3840,10.905766666666668,
954,default,block2,jackson,ai,0.15,5770,see,52,see,C,[],40,Yes,,Male,English,Chrome,Windows,2160,3840,10.905766666666668,
954,default,block2,josie,ai,0.22,7113,announce,53,announce,C,[],40,Yes,,Male,English,Chrome,Windows,2160,3840,10.905766666666668,
954,default,block2,owen,ai,0.21,11546,hear,54,hear,C,[],40,Yes,,Male,English,Chrome,Windows,2160,3840,10.905766666666668,
954,default,block2,jayden,ai,0.22,8930,confess,55,confess,C,[],40,Yes,,Male,English,Chrome,Windows,2160,3840,10.905766666666668,
954,default,block2,garage,ai,0.89,5249,MC,56,MC,MC,[],40,Yes,,Male,English,Chrome,Windows,2160,3840,10.905766666666668,
954,default,block2,ballet,ai,1,8815,MC,57,MC,MC,[],40,Yes,,Male,English,Chrome,Windows,2160,3840,10.905766666666668,
831,default,block1,pizza,projective,1,76411,MC,5,MC,MC,[],29,Yes,One more line of dialogue wouldve told all!,Male,english,Chrome,Windows,1080,1920,23.566183333333335,
831,default,block1,jon,projective,0,16670,admit,6,admit,C,[],29,Yes,One more line of dialogue wouldve told all!,Male,english,Chrome,Windows,1080,1920,23.566183333333335,
831,default,block1,isabella,projective,1,22190,know,7,know,C,[],29,Yes,One more line of dialogue wouldve told all!,Male,english,Chrome,Windows,1080,1920,23.566183333333335,
831,default,block1,mary,projective,0,8385,say,8,say,C,[],29,Yes,One more line of dialogue wouldve told all!,Male,english,Chrome,Windows,1080,1920,23.566183333333335,
831,default,block1,zoe,projective,0,11219,prove,9,prove,C,[],29,Yes,One more line of dialogue wouldve told all!,Male,english,Chrome,Windows,1080,1920,23.566183333333335,
831,default,block1,charley,projective,0,326259,confirm,10,confirm,C,[],29,Yes,One more line of dialogue wouldve told all!,Male,english,Chrome,Windows,1080,1920,23.566183333333335,
831,default,block1,ballet,projective,1,32010,MC,11,MC,MC,[],29,Yes,One more line of dialogue wouldve told all!,Male,english,Chrome,Windows,1080,1920,23.566183333333335,
831,default,block1,josie,projective,0.31,33977,see,12,see,C,[],29,Yes,One more line of dialogue wouldve told all!,Male,english,Chrome,Windows,1080,1920,23.566183333333335,
831,default,block1,garage,projective,0.95,51207,MC,13,MC,MC,[],29,Yes,One more line of dialogue wouldve told all!,Male,english,Chrome,Windows,1080,1920,23.566183333333335,
831,default,block1,hat,projective,1,5259,MC,14,MC,MC,[],29,Yes,One more line of dialogue wouldve told all!,Male,english,Chrome,Windows,1080,1920,23.566183333333335,
831,default,block1,jayden,projective,0.05,2392,hear,15,hear,C,[],29,Yes,One more line of dialogue wouldve told all!,Male,english,Chrome,Windows,1080,1920,23.566183333333335,
831,default,block1,tony,projective,1,1847,establish,16,establish,C,[],29,Yes,One more line of dialogue wouldve told all!,Male,english,Chrome,Windows,1080,1920,23.566183333333335,
831,default,block1,mia,projective,0.04,1673,inform,17,inform,C,[],29,Yes,One more line of dialogue wouldve told all!,Male,english,Chrome,Windows,1080,1920,23.566183333333335,
831,default,block1,kids,projective,0.8,1188,MC,18,MC,MC,[],29,Yes,One more line of dialogue wouldve told all!,Male,english,Chrome,Windows,1080,1920,23.566183333333335,
831,default,block1,josh,projective,0.32,1577,discover,19,discover,C,[],29,Yes,One more line of dialogue wouldve told all!,Male,english,Chrome,Windows,1080,1920,23.566183333333335,
831,default,block1,sophia,projective,0.14,4658,be_right,20,be_right,C,[],29,Yes,One more line of dialogue wouldve told all!,Male,english,Chrome,Windows,1080,1920,23.566183333333335,
831,default,block1,jackson,projective,0,184698,suggest,21,suggest,C,[],29,Yes,One more line of dialogue wouldve told all!,Male,english,Chrome,Windows,1080,1920,23.566183333333335,
831,default,block1,emily,projective,0.07,37373,be_annoyed,22,be_annoyed,C,[],29,Yes,One more line of dialogue wouldve told all!,Male,english,Chrome,Windows,1080,1920,23.566183333333335,
831,default,block1,owen,projective,0.11,12857,demonstrate,23,demonstrate,C,[],29,Yes,One more line of dialogue wouldve told all!,Male,english,Chrome,Windows,1080,1920,23.566183333333335,
831,default,block1,grace,projective,0.76,3644,think,24,think,C,[],29,Yes,One more line of dialogue wouldve told all!,Male,english,Chrome,Windows,1080,1920,23.566183333333335,
831,default,block1,olivia,projective,0.17,1672,reveal,25,reveal,C,[],29,Yes,One more line of dialogue wouldve told all!,Male,english,Chrome,Windows,1080,1920,23.566183333333335,
831,default,block1,muffins,projective,0.75,1481,MC,26,MC,MC,[],29,Yes,One more line of dialogue wouldve told all!,Male,english,Chrome,Windows,1080,1920,23.566183333333335,
831,default,block1,frank,projective,0.85,17651,announce,27,announce,C,[],29,Yes,One more line of dialogue wouldve told all!,Male,english,Chrome,Windows,1080,1920,23.566183333333335,
831,default,block1,julian,projective,0.07,3001,acknowledge,28,acknowledge,C,[],29,Yes,One more line of dialogue wouldve told all!,Male,english,Chrome,Windows,1080,1920,23.566183333333335,
831,default,block1,danny,projective,0.08,18809,confess,29,confess,C,[],29,Yes,One more line of dialogue wouldve told all!,Male,english,Chrome,Windows,1080,1920,23.566183333333335,
831,default,block1,emma,projective,0.81,15239,pretend,30,pretend,C,[],29,Yes,One more line of dialogue wouldve told all!,Male,english,Chrome,Windows,1080,1920,23.566183333333335,
831,default,block2,zoe,ai,0.94,18105,prove,32,prove,C,[],29,Yes,One more line of dialogue wouldve told all!,Male,english,Chrome,Windows,1080,1920,23.566183333333335,
831,default,block2,ballet,ai,0.99,6849,MC,33,MC,MC,[],29,Yes,One more line of dialogue wouldve told all!,Male,english,Chrome,Windows,1080,1920,23.566183333333335,
831,default,block2,jackson,ai,0.93,4744,suggest,34,suggest,C,[],29,Yes,One more line of dialogue wouldve told all!,Male,english,Chrome,Windows,1080,1920,23.566183333333335,
831,default,block2,frank,ai,1,4657,announce,35,announce,C,[],29,Yes,One more line of dialogue wouldve told all!,Male,english,Chrome,Windows,1080,1920,23.566183333333335,
831,default,block2,charley,ai,0.92,15700,confirm,36,confirm,C,[],29,Yes,One more line of dialogue wouldve told all!,Male,english,Chrome,Windows,1080,1920,23.566183333333335,
831,default,block2,mary,ai,1,3110,say,37,say,C,[],29,Yes,One more line of dialogue wouldve told all!,Male,english,Chrome,Windows,1080,1920,23.566183333333335,
831,default,block2,emma,ai,0.94,2140,pretend,38,pretend,C,[],29,Yes,One more line of dialogue wouldve told all!,Male,english,Chrome,Windows,1080,1920,23.566183333333335,
831,default,block2,julian,ai,0.99,3293,acknowledge,39,acknowledge,C,[],29,Yes,One more line of dialogue wouldve told all!,Male,english,Chrome,Windows,1080,1920,23.566183333333335,
831,default,block2,isabella,ai,0.93,2544,know,40,know,C,[],29,Yes,One more line of dialogue wouldve told all!,Male,english,Chrome,Windows,1080,1920,23.566183333333335,
831,default,block2,kids,ai,0.51,2662,MC,41,MC,MC,[],29,Yes,One more line of dialogue wouldve told all!,Male,english,Chrome,Windows,1080,1920,23.566183333333335,
831,default,block2,garage,ai,0.92,1841,MC,42,MC,MC,[],29,Yes,One more line of dialogue wouldve told all!,Male,english,Chrome,Windows,1080,1920,23.566183333333335,
831,default,block2,jayden,ai,0.91,4113,hear,43,hear,C,[],29,Yes,One more line of dialogue wouldve told all!,Male,english,Chrome,Windows,1080,1920,23.566183333333335,
831,default,block2,josie,ai,0.92,2736,see,44,see,C,[],29,Yes,One more line of dialogue wouldve told all!,Male,english,Chrome,Windows,1080,1920,23.566183333333335,
831,default,block2,sophia,ai,0,69638,be_right,45,be_right,C,[],29,Yes,One more line of dialogue wouldve told all!,Male,english,Chrome,Windows,1080,1920,23.566183333333335,
831,default,block2,josh,ai,0.77,1957,discover,46,discover,C,[],29,Yes,One more line of dialogue wouldve told all!,Male,english,Chrome,Windows,1080,1920,23.566183333333335,
831,default,block2,hat,ai,0.28,5236,MC,47,MC,MC,[],29,Yes,One more line of dialogue wouldve told all!,Male,english,Chrome,Windows,1080,1920,23.566183333333335,
831,default,block2,muffins,ai,0.81,1159,MC,48,MC,MC,[],29,Yes,One more line of dialogue wouldve told all!,Male,english,Chrome,Windows,1080,1920,23.566183333333335,
831,default,block2,jon,ai,0.82,1994,admit,49,admit,C,[],29,Yes,One more line of dialogue wouldve told all!,Male,english,Chrome,Windows,1080,1920,23.566183333333335,
831,default,block2,tony,ai,0.05,35806,establish,50,establish,C,[],29,Yes,One more line of dialogue wouldve told all!,Male,english,Chrome,Windows,1080,1920,23.566183333333335,
831,default,block2,danny,ai,0.87,1856,confess,51,confess,C,[],29,Yes,One more line of dialogue wouldve told all!,Male,english,Chrome,Windows,1080,1920,23.566183333333335,
831,default,block2,owen,ai,0.81,902,demonstrate,52,demonstrate,C,[],29,Yes,One more line of dialogue wouldve told all!,Male,english,Chrome,Windows,1080,1920,23.566183333333335,
831,default,block2,emily,ai,0.85,3314,be_annoyed,53,be_annoyed,C,[],29,Yes,One more line of dialogue wouldve told all!,Male,english,Chrome,Windows,1080,1920,23.566183333333335,
831,default,block2,mia,ai,0.82,2054,inform,54,inform,C,[],29,Yes,One more line of dialogue wouldve told all!,Male,english,Chrome,Windows,1080,1920,23.566183333333335,
831,default,block2,grace,ai,0.82,1430,think,55,think,C,[],29,Yes,One more line of dialogue wouldve told all!,Male,english,Chrome,Windows,1080,1920,23.566183333333335,
831,default,block2,pizza,ai,0.91,931,MC,56,MC,MC,[],29,Yes,One more line of dialogue wouldve told all!,Male,english,Chrome,Windows,1080,1920,23.566183333333335,
831,default,block2,olivia,ai,0.38,2361,reveal,57,reveal,C,[],29,Yes,One more line of dialogue wouldve told all!,Male,english,Chrome,Windows,1080,1920,23.566183333333335,
795,default,block1,garage,projective,0.97,50428,MC,5,MC,MC,[],29,Yes,N/A,Male,English,Chrome,Windows,600,1024,22.004933333333337,
795,default,block1,sophia,projective,0.55,24260,pretend,6,pretend,C,[],29,Yes,N/A,Male,English,Chrome,Windows,600,1024,22.004933333333337,
795,default,block1,zoe,projective,0.78,21140,see,7,see,C,[],29,Yes,N/A,Male,English,Chrome,Windows,600,1024,22.004933333333337,
795,default,block1,owen,projective,0.03,21132,demonstrate,8,demonstrate,C,[],29,Yes,N/A,Male,English,Chrome,Windows,600,1024,22.004933333333337,
795,default,block1,emma,projective,0.03,15727,say,9,say,C,[],29,Yes,N/A,Male,English,Chrome,Windows,600,1024,22.004933333333337,
795,default,block1,tony,projective,0.06,15761,acknowledge,10,acknowledge,C,[],29,Yes,N/A,Male,English,Chrome,Windows,600,1024,22.004933333333337,
795,default,block1,frank,projective,0.02,13452,reveal,11,reveal,C,[],29,Yes,N/A,Male,English,Chrome,Windows,600,1024,22.004933333333337,
795,default,block1,grace,projective,0.08,11369,admit,12,admit,C,[],29,Yes,N/A,Male,English,Chrome,Windows,600,1024,22.004933333333337,
795,default,block1,jayden,projective,0.15,7265,be_annoyed,13,be_annoyed,C,[],29,Yes,N/A,Male,English,Chrome,Windows,600,1024,22.004933333333337,
795,default,block1,danny,projective,0.33,5558,establish,14,establish,C,[],29,Yes,N/A,Male,English,Chrome,Windows,600,1024,22.004933333333337,
795,default,block1,josie,projective,0.98,22005,know,15,know,C,[],29,Yes,N/A,Male,English,Chrome,Windows,600,1024,22.004933333333337,
795,default,block1,kids,projective,0.99,14663,MC,16,MC,MC,[],29,Yes,N/A,Male,English,Chrome,Windows,600,1024,22.004933333333337,
795,default,block1,charley,projective,0.04,17143,prove,17,prove,C,[],29,Yes,N/A,Male,English,Chrome,Windows,600,1024,22.004933333333337,
795,default,block1,muffins,projective,0.99,11132,MC,18,MC,MC,[],29,Yes,N/A,Male,English,Chrome,Windows,600,1024,22.004933333333337,
795,default,block1,isabella,projective,0.94,24508,hear,19,hear,C,[],29,Yes,N/A,Male,English,Chrome,Windows,600,1024,22.004933333333337,
795,default,block1,mia,projective,0.04,13694,suggest,20,suggest,C,[],29,Yes,N/A,Male,English,Chrome,Windows,600,1024,22.004933333333337,
795,default,block1,jon,projective,0.05,5779,discover,21,discover,C,[],29,Yes,N/A,Male,English,Chrome,Windows,600,1024,22.004933333333337,
795,default,block1,ballet,projective,1,10795,MC,22,MC,MC,[],29,Yes,N/A,Male,English,Chrome,Windows,600,1024,22.004933333333337,
795,default,block1,jackson,projective,0.02,10187,be_right,23,be_right,C,[],29,Yes,N/A,Male,English,Chrome,Windows,600,1024,22.004933333333337,
795,default,block1,pizza,projective,0.99,9718,MC,24,MC,MC,[],29,Yes,N/A,Male,English,Chrome,Windows,600,1024,22.004933333333337,
795,default,block1,mary,projective,0.02,16271,confirm,25,confirm,C,[],29,Yes,N/A,Male,English,Chrome,Windows,600,1024,22.004933333333337,
795,default,block1,emily,projective,0.07,27660,think,26,think,C,[],29,Yes,N/A,Male,English,Chrome,Windows,600,1024,22.004933333333337,
795,default,block1,josh,projective,0.05,3911,inform,27,inform,C,[],29,Yes,N/A,Male,English,Chrome,Windows,600,1024,22.004933333333337,
795,default,block1,olivia,projective,0.98,25024,confess,28,confess,C,[],29,Yes,N/A,Male,English,Chrome,Windows,600,1024,22.004933333333337,
795,default,block1,hat,projective,0.96,11534,MC,29,MC,MC,[],29,Yes,N/A,Male,English,Chrome,Windows,600,1024,22.004933333333337,
795,default,block1,julian,projective,0.06,15576,announce,30,announce,C,[],29,Yes,N/A,Male,English,Chrome,Windows,600,1024,22.004933333333337,
795,default,block2,emma,ai,0.99,28976,say,32,say,C,[],29,Yes,N/A,Male,English,Chrome,Windows,600,1024,22.004933333333337,
795,default,block2,frank,ai,0.97,14334,reveal,33,reveal,C,[],29,Yes,N/A,Male,English,Chrome,Windows,600,1024,22.004933333333337,
795,default,block2,tony,ai,0.98,30597,acknowledge,34,acknowledge,C,[],29,Yes,N/A,Male,English,Chrome,Windows,600,1024,22.004933333333337,
795,default,block2,charley,ai,0.99,5374,prove,35,prove,C,[],29,Yes,N/A,Male,English,Chrome,Windows,600,1024,22.004933333333337,
795,default,block2,emily,ai,0.98,7111,think,36,think,C,[],29,Yes,N/A,Male,English,Chrome,Windows,600,1024,22.004933333333337,
795,default,block2,olivia,ai,0.92,31298,confess,37,confess,C,[],29,Yes,N/A,Male,English,Chrome,Windows,600,1024,22.004933333333337,
795,default,block2,jackson,ai,0.83,4514,be_right,38,be_right,C,[],29,Yes,N/A,Male,English,Chrome,Windows,600,1024,22.004933333333337,
795,default,block2,mia,ai,0.91,4799,suggest,39,suggest,C,[],29,Yes,N/A,Male,English,Chrome,Windows,600,1024,22.004933333333337,
795,default,block2,grace,ai,0.9,5611,admit,40,admit,C,[],29,Yes,N/A,Male,English,Chrome,Windows,600,1024,22.004933333333337,
795,default,block2,pizza,ai,0.97,13805,MC,41,MC,MC,[],29,Yes,N/A,Male,English,Chrome,Windows,600,1024,22.004933333333337,
795,default,block2,zoe,ai,0.2,8106,see,42,see,C,[],29,Yes,N/A,Male,English,Chrome,Windows,600,1024,22.004933333333337,
795,default,block2,mary,ai,0.09,12908,confirm,43,confirm,C,[],29,Yes,N/A,Male,English,Chrome,Windows,600,1024,22.004933333333337,
795,default,block2,danny,ai,0.24,8028,establish,44,establish,C,[],29,Yes,N/A,Male,English,Chrome,Windows,600,1024,22.004933333333337,
795,default,block2,kids,ai,0.98,10956,MC,45,MC,MC,[],29,Yes,N/A,Male,English,Chrome,Windows,600,1024,22.004933333333337,
795,default,block2,josie,ai,0.47,5517,know,46,know,C,[],29,Yes,N/A,Male,English,Chrome,Windows,600,1024,22.004933333333337,
795,default,block2,garage,ai,0.98,28148,MC,47,MC,MC,[],29,Yes,N/A,Male,English,Chrome,Windows,600,1024,22.004933333333337,
795,default,block2,sophia,ai,0.03,5011,pretend,48,pretend,C,[],29,Yes,N/A,Male,English,Chrome,Windows,600,1024,22.004933333333337,
795,default,block2,hat,ai,0.98,14285,MC,49,MC,MC,[],29,Yes,N/A,Male,English,Chrome,Windows,600,1024,22.004933333333337,
795,default,block2,jayden,ai,0.12,13642,be_annoyed,50,be_annoyed,C,[],29,Yes,N/A,Male,English,Chrome,Windows,600,1024,22.004933333333337,
795,default,block2,muffins,ai,0.98,10225,MC,51,MC,MC,[],29,Yes,N/A,Male,English,Chrome,Windows,600,1024,22.004933333333337,
795,default,block2,ballet,ai,0.98,6283,MC,52,MC,MC,[],29,Yes,N/A,Male,English,Chrome,Windows,600,1024,22.004933333333337,
795,default,block2,isabella,ai,0.02,11538,hear,53,hear,C,[],29,Yes,N/A,Male,English,Chrome,Windows,600,1024,22.004933333333337,
795,default,block2,josh,ai,0.02,6551,inform,54,inform,C,[],29,Yes,N/A,Male,English,Chrome,Windows,600,1024,22.004933333333337,
795,default,block2,julian,ai,0.04,3922,announce,55,announce,C,[],29,Yes,N/A,Male,English,Chrome,Windows,600,1024,22.004933333333337,
795,default,block2,owen,ai,0.11,4119,demonstrate,56,demonstrate,C,[],29,Yes,N/A,Male,English,Chrome,Windows,600,1024,22.004933333333337,
795,default,block2,jon,ai,0.02,5369,discover,57,discover,C,[],29,Yes,N/A,Male,English,Chrome,Windows,600,1024,22.004933333333337,
909,default,block1,muffins,ai,1,15682,MC,5,MC,MC,[],39,Yes,thank you for this study,Female,white,Chrome,Windows,768,1366,9.921083333333334,
909,default,block1,sophia,ai,0.97,13980,admit,6,admit,C,[],39,Yes,thank you for this study,Female,white,Chrome,Windows,768,1366,9.921083333333334,
909,default,block1,kids,ai,0.96,11257,MC,7,MC,MC,[],39,Yes,thank you for this study,Female,white,Chrome,Windows,768,1366,9.921083333333334,
909,default,block1,grace,ai,0.5,16960,think,8,think,C,[],39,Yes,thank you for this study,Female,white,Chrome,Windows,768,1366,9.921083333333334,
909,default,block1,josh,ai,0.51,12697,suggest,9,suggest,C,[],39,Yes,thank you for this study,Female,white,Chrome,Windows,768,1366,9.921083333333334,
909,default,block1,danny,ai,0.96,13668,know,10,know,C,[],39,Yes,thank you for this study,Female,white,Chrome,Windows,768,1366,9.921083333333334,
909,default,block1,isabella,ai,0.97,7679,confirm,11,confirm,C,[],39,Yes,thank you for this study,Female,white,Chrome,Windows,768,1366,9.921083333333334,
909,default,block1,hat,ai,0.97,7251,MC,12,MC,MC,[],39,Yes,thank you for this study,Female,white,Chrome,Windows,768,1366,9.921083333333334,
909,default,block1,olivia,ai,0.95,6000,see,13,see,C,[],39,Yes,thank you for this study,Female,white,Chrome,Windows,768,1366,9.921083333333334,
909,default,block1,emma,ai,0.95,9020,confess,14,confess,C,[],39,Yes,thank you for this study,Female,white,Chrome,Windows,768,1366,9.921083333333334,
909,default,block1,mia,ai,0.97,6861,pretend,15,pretend,C,[],39,Yes,thank you for this study,Female,white,Chrome,Windows,768,1366,9.921083333333334,
909,default,block1,ballet,ai,0.96,23729,MC,16,MC,MC,[],39,Yes,thank you for this study,Female,white,Chrome,Windows,768,1366,9.921083333333334,
909,default,block1,josie,ai,0.96,5166,establish,17,establish,C,[],39,Yes,thank you for this study,Female,white,Chrome,Windows,768,1366,9.921083333333334,
909,default,block1,owen,ai,0.94,6420,prove,18,prove,C,[],39,Yes,thank you for this study,Female,white,Chrome,Windows,768,1366,9.921083333333334,
909,default,block1,charley,ai,0.96,6496,be_annoyed,19,be_annoyed,C,[],39,Yes,thank you for this study,Female,white,Chrome,Windows,768,1366,9.921083333333334,
909,default,block1,garage,ai,0.82,5166,MC,20,MC,MC,[],39,Yes,thank you for this study,Female,white,Chrome,Windows,768,1366,9.921083333333334,
909,default,block1,jon,ai,0.95,4885,inform,21,inform,C,[],39,Yes,thank you for this study,Female,white,Chrome,Windows,768,1366,9.921083333333334,
909,default,block1,emily,ai,0.98,5185,reveal,22,reveal,C,[],39,Yes,thank you for this study,Female,white,Chrome,Windows,768,1366,9.921083333333334,
909,default,block1,jayden,ai,0.96,6964,demonstrate,23,demonstrate,C,[],39,Yes,thank you for this study,Female,white,Chrome,Windows,768,1366,9.921083333333334,
909,default,block1,frank,ai,0.95,5862,be_right,24,be_right,C,[],39,Yes,thank you for this study,Female,white,Chrome,Windows,768,1366,9.921083333333334,
909,default,block1,julian,ai,0.97,7858,announce,25,announce,C,[],39,Yes,thank you for this study,Female,white,Chrome,Windows,768,1366,9.921083333333334,
909,default,block1,mary,ai,0.98,5246,acknowledge,26,acknowledge,C,[],39,Yes,thank you for this study,Female,white,Chrome,Windows,768,1366,9.921083333333334,
909,default,block1,pizza,ai,0.96,7339,MC,27,MC,MC,[],39,Yes,thank you for this study,Female,white,Chrome,Windows,768,1366,9.921083333333334,
909,default,block1,zoe,ai,0.98,6927,say,28,say,C,[],39,Yes,thank you for this study,Female,white,Chrome,Windows,768,1366,9.921083333333334,
909,default,block1,tony,ai,0.97,4912,discover,29,discover,C,[],39,Yes,thank you for this study,Female,white,Chrome,Windows,768,1366,9.921083333333334,
909,default,block1,jackson,ai,0.98,5125,hear,30,hear,C,[],39,Yes,thank you for this study,Female,white,Chrome,Windows,768,1366,9.921083333333334,
909,default,block2,muffins,projective,0.98,10128,MC,32,MC,MC,[],39,Yes,thank you for this study,Female,white,Chrome,Windows,768,1366,9.921083333333334,
909,default,block2,grace,projective,0.01,25636,think,33,think,C,[],39,Yes,thank you for this study,Female,white,Chrome,Windows,768,1366,9.921083333333334,
909,default,block2,josie,projective,0.98,9372,establish,34,establish,C,[],39,Yes,thank you for this study,Female,white,Chrome,Windows,768,1366,9.921083333333334,
909,default,block2,josh,projective,0.04,23004,suggest,35,suggest,C,[],39,Yes,thank you for this study,Female,white,Chrome,Windows,768,1366,9.921083333333334,
909,default,block2,emily,projective,0.97,6796,reveal,36,reveal,C,[],39,Yes,thank you for this study,Female,white,Chrome,Windows,768,1366,9.921083333333334,
909,default,block2,tony,projective,0.99,5919,discover,37,discover,C,[],39,Yes,thank you for this study,Female,white,Chrome,Windows,768,1366,9.921083333333334,
909,default,block2,sophia,projective,0.98,7024,admit,38,admit,C,[],39,Yes,thank you for this study,Female,white,Chrome,Windows,768,1366,9.921083333333334,
909,default,block2,zoe,projective,0.95,6908,say,39,say,C,[],39,Yes,thank you for this study,Female,white,Chrome,Windows,768,1366,9.921083333333334,
909,default,block2,frank,projective,0.02,9819,be_right,40,be_right,C,[],39,Yes,thank you for this study,Female,white,Chrome,Windows,768,1366,9.921083333333334,
909,default,block2,ballet,projective,0.97,9589,MC,41,MC,MC,[],39,Yes,thank you for this study,Female,white,Chrome,Windows,768,1366,9.921083333333334,
909,default,block2,mary,projective,0.97,18196,acknowledge,42,acknowledge,C,[],39,Yes,thank you for this study,Female,white,Chrome,Windows,768,1366,9.921083333333334,
909,default,block2,pizza,projective,0.98,7120,MC,43,MC,MC,[],39,Yes,thank you for this study,Female,white,Chrome,Windows,768,1366,9.921083333333334,
909,default,block2,isabella,projective,0.21,14544,confirm,44,confirm,C,[],39,Yes,thank you for this study,Female,white,Chrome,Windows,768,1366,9.921083333333334,
909,default,block2,jayden,projective,0.97,9507,demonstrate,45,demonstrate,C,[],39,Yes,thank you for this study,Female,white,Chrome,Windows,768,1366,9.921083333333334,
909,default,block2,kids,projective,0.98,13635,MC,46,MC,MC,[],39,Yes,thank you for this study,Female,white,Chrome,Windows,768,1366,9.921083333333334,
909,default,block2,danny,projective,0.99,10047,know,47,know,C,[],39,Yes,thank you for this study,Female,white,Chrome,Windows,768,1366,9.921083333333334,
909,default,block2,jon,projective,0.97,8318,inform,48,inform,C,[],39,Yes,thank you for this study,Female,white,Chrome,Windows,768,1366,9.921083333333334,
909,default,block2,mia,projective,0.04,7404,pretend,49,pretend,C,[],39,Yes,thank you for this study,Female,white,Chrome,Windows,768,1366,9.921083333333334,
909,default,block2,charley,projective,0.97,6348,be_annoyed,50,be_annoyed,C,[],39,Yes,thank you for this study,Female,white,Chrome,Windows,768,1366,9.921083333333334,
909,default,block2,emma,projective,0.96,10740,confess,51,confess,C,[],39,Yes,thank you for this study,Female,white,Chrome,Windows,768,1366,9.921083333333334,
909,default,block2,garage,projective,0.95,10074,MC,52,MC,MC,[],39,Yes,thank you for this study,Female,white,Chrome,Windows,768,1366,9.921083333333334,
909,default,block2,hat,projective,0.96,7066,MC,53,MC,MC,[],39,Yes,thank you for this study,Female,white,Chrome,Windows,768,1366,9.921083333333334,
909,default,block2,jackson,projective,0.99,8230,hear,54,hear,C,[],39,Yes,thank you for this study,Female,white,Chrome,Windows,768,1366,9.921083333333334,
909,default,block2,olivia,projective,0.99,11972,see,55,see,C,[],39,Yes,thank you for this study,Female,white,Chrome,Windows,768,1366,9.921083333333334,
909,default,block2,julian,projective,0.96,10734,announce,56,announce,C,[],39,Yes,thank you for this study,Female,white,Chrome,Windows,768,1366,9.921083333333334,
909,default,block2,owen,projective,0.09,10195,prove,57,prove,C,[],39,Yes,thank you for this study,Female,white,Chrome,Windows,768,1366,9.921083333333334,
962,default,block1,owen,projective,0.77,35053,demonstrate,5,demonstrate,C,[],21,Yes,,Female,English,Chrome,Windows,900,1600,11.884266666666669,
962,default,block1,mary,projective,0.4,17250,confess,6,confess,C,[],21,Yes,,Female,English,Chrome,Windows,900,1600,11.884266666666669,
962,default,block1,josie,projective,0.61,20466,prove,7,prove,C,[],21,Yes,,Female,English,Chrome,Windows,900,1600,11.884266666666669,
962,default,block1,pizza,projective,0.99,11441,MC,8,MC,MC,[],21,Yes,,Female,English,Chrome,Windows,900,1600,11.884266666666669,
962,default,block1,jayden,projective,0.64,17524,establish,9,establish,C,[],21,Yes,,Female,English,Chrome,Windows,900,1600,11.884266666666669,
962,default,block1,jackson,projective,0.72,28148,hear,10,hear,C,[],21,Yes,,Female,English,Chrome,Windows,900,1600,11.884266666666669,
962,default,block1,isabella,projective,0.9,10882,discover,11,discover,C,[],21,Yes,,Female,English,Chrome,Windows,900,1600,11.884266666666669,
962,default,block1,danny,projective,0.98,15248,be_annoyed,12,be_annoyed,C,[],21,Yes,,Female,English,Chrome,Windows,900,1600,11.884266666666669,
962,default,block1,emily,projective,0.76,12546,see,13,see,C,[],21,Yes,,Female,English,Chrome,Windows,900,1600,11.884266666666669,
962,default,block1,muffins,projective,1,6752,MC,14,MC,MC,[],21,Yes,,Female,English,Chrome,Windows,900,1600,11.884266666666669,
962,default,block1,charley,projective,0.47,12230,admit,15,admit,C,[],21,Yes,,Female,English,Chrome,Windows,900,1600,11.884266666666669,
962,default,block1,ballet,projective,1,5583,MC,16,MC,MC,[],21,Yes,,Female,English,Chrome,Windows,900,1600,11.884266666666669,
962,default,block1,frank,projective,0.62,18299,reveal,17,reveal,C,[],21,Yes,,Female,English,Chrome,Windows,900,1600,11.884266666666669,
962,default,block1,zoe,projective,0.84,10215,know,18,know,C,[],21,Yes,,Female,English,Chrome,Windows,900,1600,11.884266666666669,
962,default,block1,julian,projective,0.85,8587,confirm,19,confirm,C,[],21,Yes,,Female,English,Chrome,Windows,900,1600,11.884266666666669,
962,default,block1,mia,projective,0.43,13827,announce,20,announce,C,[],21,Yes,,Female,English,Chrome,Windows,900,1600,11.884266666666669,
962,default,block1,grace,projective,0.08,13182,pretend,21,pretend,C,[],21,Yes,,Female,English,Chrome,Windows,900,1600,11.884266666666669,
962,default,block1,garage,projective,1,8197,MC,22,MC,MC,[],21,Yes,,Female,English,Chrome,Windows,900,1600,11.884266666666669,
962,default,block1,jon,projective,0.12,16815,inform,23,inform,C,[],21,Yes,,Female,English,Chrome,Windows,900,1600,11.884266666666669,
962,default,block1,olivia,projective,0.89,16131,suggest,24,suggest,C,[],21,Yes,,Female,English,Chrome,Windows,900,1600,11.884266666666669,
962,default,block1,hat,projective,0.99,4781,MC,25,MC,MC,[],21,Yes,,Female,English,Chrome,Windows,900,1600,11.884266666666669,
962,default,block1,emma,projective,0.11,13115,think,26,think,C,[],21,Yes,,Female,English,Chrome,Windows,900,1600,11.884266666666669,
962,default,block1,josh,projective,0.96,10266,acknowledge,27,acknowledge,C,[],21,Yes,,Female,English,Chrome,Windows,900,1600,11.884266666666669,
962,default,block1,kids,projective,0.99,4883,MC,28,MC,MC,[],21,Yes,,Female,English,Chrome,Windows,900,1600,11.884266666666669,
962,default,block1,sophia,projective,0.27,6230,be_right,29,be_right,C,[],21,Yes,,Female,English,Chrome,Windows,900,1600,11.884266666666669,
962,default,block1,tony,projective,0.71,11182,say,30,say,C,[],21,Yes,,Female,English,Chrome,Windows,900,1600,11.884266666666669,
962,default,block2,mia,ai,0.11,83895,announce,32,announce,C,[],21,Yes,,Female,English,Chrome,Windows,900,1600,11.884266666666669,
962,default,block2,charley,ai,0.59,15365,admit,33,admit,C,[],21,Yes,,Female,English,Chrome,Windows,900,1600,11.884266666666669,
962,default,block2,pizza,ai,0.98,7833,MC,34,MC,MC,[],21,Yes,,Female,English,Chrome,Windows,900,1600,11.884266666666669,
962,default,block2,danny,ai,0.2,20412,be_annoyed,35,be_annoyed,C,[],21,Yes,,Female,English,Chrome,Windows,900,1600,11.884266666666669,
962,default,block2,muffins,ai,0.98,8670,MC,36,MC,MC,[],21,Yes,,Female,English,Chrome,Windows,900,1600,11.884266666666669,
962,default,block2,josie,ai,0.38,10253,prove,37,prove,C,[],21,Yes,,Female,English,Chrome,Windows,900,1600,11.884266666666669,
962,default,block2,owen,ai,0.35,9088,demonstrate,38,demonstrate,C,[],21,Yes,,Female,English,Chrome,Windows,900,1600,11.884266666666669,
962,default,block2,mary,ai,0.5,8698,confess,39,confess,C,[],21,Yes,,Female,English,Chrome,Windows,900,1600,11.884266666666669,
962,default,block2,julian,ai,0.28,6768,confirm,40,confirm,C,[],21,Yes,,Female,English,Chrome,Windows,900,1600,11.884266666666669,
962,default,block2,jackson,ai,0.28,14947,hear,41,hear,C,[],21,Yes,,Female,English,Chrome,Windows,900,1600,11.884266666666669,
962,default,block2,jon,ai,0.36,11531,inform,42,inform,C,[],21,Yes,,Female,English,Chrome,Windows,900,1600,11.884266666666669,
962,default,block2,garage,ai,0.98,6466,MC,43,MC,MC,[],21,Yes,,Female,English,Chrome,Windows,900,1600,11.884266666666669,
962,default,block2,zoe,ai,0.3,4951,know,44,know,C,[],21,Yes,,Female,English,Chrome,Windows,900,1600,11.884266666666669,
962,default,block2,frank,ai,0.52,7081,reveal,45,reveal,C,[],21,Yes,,Female,English,Chrome,Windows,900,1600,11.884266666666669,
962,default,block2,sophia,ai,0.35,4750,be_right,46,be_right,C,[],21,Yes,,Female,English,Chrome,Windows,900,1600,11.884266666666669,
962,default,block2,kids,ai,0.99,3799,MC,47,MC,MC,[],21,Yes,,Female,English,Chrome,Windows,900,1600,11.884266666666669,
962,default,block2,isabella,ai,0.23,4615,discover,48,discover,C,[],21,Yes,,Female,English,Chrome,Windows,900,1600,11.884266666666669,
962,default,block2,ballet,ai,0.98,3748,MC,49,MC,MC,[],21,Yes,,Female,English,Chrome,Windows,900,1600,11.884266666666669,
962,default,block2,emma,ai,0.33,10900,think,50,think,C,[],21,Yes,,Female,English,Chrome,Windows,900,1600,11.884266666666669,
962,default,block2,josh,ai,0.14,9912,acknowledge,51,acknowledge,C,[],21,Yes,,Female,English,Chrome,Windows,900,1600,11.884266666666669,
962,default,block2,olivia,ai,0.41,7832,suggest,52,suggest,C,[],21,Yes,,Female,English,Chrome,Windows,900,1600,11.884266666666669,
962,default,block2,emily,ai,0.49,10747,see,53,see,C,[],21,Yes,,Female,English,Chrome,Windows,900,1600,11.884266666666669,
962,default,block2,jayden,ai,0.26,4317,establish,54,establish,C,[],21,Yes,,Female,English,Chrome,Windows,900,1600,11.884266666666669,
962,default,block2,grace,ai,0.47,4431,pretend,55,pretend,C,[],21,Yes,,Female,English,Chrome,Windows,900,1600,11.884266666666669,
962,default,block2,hat,ai,0.98,3802,MC,56,MC,MC,[],21,Yes,,Female,English,Chrome,Windows,900,1600,11.884266666666669,
962,default,block2,tony,ai,0.51,4096,say,57,say,C,[],21,Yes,,Female,English,Chrome,Windows,900,1600,11.884266666666669,
809,default,block1,owen,ai,0.02,18660,demonstrate,5,demonstrate,C,[],33,Yes,"For me, the questions about the ""if"" sentences can really only properly be answered by questioning the main clause. E.g., If..., someone will be sad. Are you sure? Yes, someone will be sad.",Female,English,Firefox,Windows,864,1536,11.315216666666666,
809,default,block1,mia,ai,0,16884,suggest,6,suggest,C,[],33,Yes,"For me, the questions about the ""if"" sentences can really only properly be answered by questioning the main clause. E.g., If..., someone will be sad. Are you sure? Yes, someone will be sad.",Female,English,Firefox,Windows,864,1536,11.315216666666666,
809,default,block1,kids,ai,0.98,8261,MC,7,MC,MC,[],33,Yes,"For me, the questions about the ""if"" sentences can really only properly be answered by questioning the main clause. E.g., If..., someone will be sad. Are you sure? Yes, someone will be sad.",Female,English,Firefox,Windows,864,1536,11.315216666666666,
809,default,block1,jackson,ai,0,8732,reveal,8,reveal,C,[],33,Yes,"For me, the questions about the ""if"" sentences can really only properly be answered by questioning the main clause. E.g., If..., someone will be sad. Are you sure? Yes, someone will be sad.",Female,English,Firefox,Windows,864,1536,11.315216666666666,
809,default,block1,julian,ai,0.01,17419,be_right,9,be_right,C,[],33,Yes,"For me, the questions about the ""if"" sentences can really only properly be answered by questioning the main clause. E.g., If..., someone will be sad. Are you sure? Yes, someone will be sad.",Female,English,Firefox,Windows,864,1536,11.315216666666666,
809,default,block1,tony,ai,0.01,9646,prove,10,prove,C,[],33,Yes,"For me, the questions about the ""if"" sentences can really only properly be answered by questioning the main clause. E.g., If..., someone will be sad. Are you sure? Yes, someone will be sad.",Female,English,Firefox,Windows,864,1536,11.315216666666666,
