workerid,proliferate.condition.x,block,content,question_type,response,rt,short_trigger,slide_number_in_experiment,trigger,trigger_class,error.x,proliferate.condition.y,age,american,comments,gender,language,error.y,trial
1068,default,block1,julian,ai,1,12602,confess,5,confess,C,NA,default,25,Yes,NA,Male,English,NA,1
1068,default,block1,danny,ai,0.97,4597,demonstrate,6,demonstrate,C,NA,default,25,Yes,NA,Male,English,NA,2
1068,default,block1,charley,ai,1,7163,confirm,7,confirm,C,NA,default,25,Yes,NA,Male,English,NA,3
1068,default,block1,mary,ai,0.99,5293,suggest,8,suggest,C,NA,default,25,Yes,NA,Male,English,NA,4
1068,default,block1,olivia,ai,0.02,10792,inform,9,inform,C,NA,default,25,Yes,NA,Male,English,NA,5
1068,default,block1,ballet,ai,0.04,3997,MC,10,MC,MC,NA,default,25,Yes,NA,Male,English,NA,6
1068,default,block1,jon,ai,0.03,4885,be_annoyed,11,be_annoyed,C,NA,default,25,Yes,NA,Male,English,NA,7
1068,default,block1,josie,ai,1,6360,be_right,12,be_right,C,NA,default,25,Yes,NA,Male,English,NA,8
1068,default,block1,emily,ai,0.04,8505,acknowledge,13,acknowledge,C,NA,default,25,Yes,NA,Male,English,NA,9
1068,default,block1,emma,ai,1,5729,prove,14,prove,C,NA,default,25,Yes,NA,Male,English,NA,10
1068,default,block1,pizza,ai,0.03,3803,MC,15,MC,MC,NA,default,25,Yes,NA,Male,English,NA,11
1068,default,block1,hat,ai,0.04,3240,MC,16,MC,MC,NA,default,25,Yes,NA,Male,English,NA,12
1068,default,block1,josh,ai,0.99,4681,say,17,say,C,NA,default,25,Yes,NA,Male,English,NA,13
1068,default,block1,sophia,ai,0.02,3310,discover,18,discover,C,NA,default,25,Yes,NA,Male,English,NA,14
1068,default,block1,owen,ai,0.02,4084,see,19,see,C,NA,default,25,Yes,NA,Male,English,NA,15
1068,default,block1,isabella,ai,0.97,3775,think,20,think,C,NA,default,25,Yes,NA,Male,English,NA,16
1068,default,block1,jayden,ai,0.96,3753,admit,21,admit,C,NA,default,25,Yes,NA,Male,English,NA,17
1068,default,block1,frank,ai,0.03,6403,hear,22,hear,C,NA,default,25,Yes,NA,Male,English,NA,18
1068,default,block1,muffins,ai,0.02,10075,MC,23,MC,MC,NA,default,25,Yes,NA,Male,English,NA,19
1068,default,block1,kids,ai,0.01,4653,MC,24,MC,MC,NA,default,25,Yes,NA,Male,English,NA,20
1068,default,block1,tony,ai,0.02,4791,know,25,know,C,NA,default,25,Yes,NA,Male,English,NA,21
1068,default,block1,garage,ai,0.04,2695,MC,26,MC,MC,NA,default,25,Yes,NA,Male,English,NA,22
1068,default,block1,jackson,ai,0.53,5928,pretend,27,pretend,C,NA,default,25,Yes,NA,Male,English,NA,23
1068,default,block1,mia,ai,0.85,4295,establish,28,establish,C,NA,default,25,Yes,NA,Male,English,NA,24
1068,default,block1,grace,ai,0.02,3930,announce,29,announce,C,NA,default,25,Yes,NA,Male,English,NA,25
1068,default,block1,zoe,ai,0.38,4618,reveal,30,reveal,C,NA,default,25,Yes,NA,Male,English,NA,26
1068,default,block2,jon,projective,0.97,7376,be_annoyed,32,be_annoyed,C,NA,default,25,Yes,NA,Male,English,NA,27
1068,default,block2,tony,projective,0.79,5841,know,33,know,C,NA,default,25,Yes,NA,Male,English,NA,28
1068,default,block2,pizza,projective,1,4549,MC,34,MC,MC,NA,default,25,Yes,NA,Male,English,NA,29
1068,default,block2,danny,projective,0.23,3824,demonstrate,35,demonstrate,C,NA,default,25,Yes,NA,Male,English,NA,30
1068,default,block2,sophia,projective,0.63,4434,discover,36,discover,C,NA,default,25,Yes,NA,Male,English,NA,31
1068,default,block2,ballet,projective,0.88,3128,MC,37,MC,MC,NA,default,25,Yes,NA,Male,English,NA,32
1068,default,block2,garage,projective,0.63,6109,MC,38,MC,MC,NA,default,25,Yes,NA,Male,English,NA,33
1068,default,block2,isabella,projective,0.14,4260,think,39,think,C,NA,default,25,Yes,NA,Male,English,NA,34
1068,default,block2,zoe,projective,0.27,3310,reveal,40,reveal,C,NA,default,25,Yes,NA,Male,English,NA,35
1068,default,block2,josie,projective,0.02,6605,be_right,41,be_right,C,NA,default,25,Yes,NA,Male,English,NA,36
1068,default,block2,charley,projective,0.23,3720,confirm,42,confirm,C,NA,default,25,Yes,NA,Male,English,NA,37
1068,default,block2,frank,projective,0.84,5489,hear,43,hear,C,NA,default,25,Yes,NA,Male,English,NA,38
1068,default,block2,julian,projective,0.31,3557,confess,44,confess,C,NA,default,25,Yes,NA,Male,English,NA,39
1068,default,block2,owen,projective,0.69,5842,see,45,see,C,NA,default,25,Yes,NA,Male,English,NA,40
1068,default,block2,josh,projective,0.21,3457,say,46,say,C,NA,default,25,Yes,NA,Male,English,NA,41
1068,default,block2,emma,projective,0.09,5265,prove,47,prove,C,NA,default,25,Yes,NA,Male,English,NA,42
1068,default,block2,grace,projective,0.71,3793,announce,48,announce,C,NA,default,25,Yes,NA,Male,English,NA,43
1068,default,block2,mia,projective,0.3,2791,establish,49,establish,C,NA,default,25,Yes,NA,Male,English,NA,44
1068,default,block2,mary,projective,0.04,3493,suggest,50,suggest,C,NA,default,25,Yes,NA,Male,English,NA,45
1068,default,block2,olivia,projective,0.7,3806,inform,51,inform,C,NA,default,25,Yes,NA,Male,English,NA,46
1068,default,block2,jayden,projective,0.73,5064,admit,52,admit,C,NA,default,25,Yes,NA,Male,English,NA,47
1068,default,block2,hat,projective,0.85,2938,MC,53,MC,MC,NA,default,25,Yes,NA,Male,English,NA,48
1068,default,block2,kids,projective,0.87,3037,MC,54,MC,MC,NA,default,25,Yes,NA,Male,English,NA,49
1068,default,block2,muffins,projective,0.98,3036,MC,55,MC,MC,NA,default,25,Yes,NA,Male,English,NA,50
1068,default,block2,jackson,projective,0.27,3999,pretend,56,pretend,C,NA,default,25,Yes,NA,Male,English,NA,51
1068,default,block2,emily,projective,0.7,4721,acknowledge,57,acknowledge,C,NA,default,25,Yes,NA,Male,English,NA,52
1075,default,block1,danny,ai,0.82,20623,think,5,think,C,NA,default,20,Yes,NA,Female,English,NA,1
1075,default,block1,kids,ai,0.04,9191,MC,6,MC,MC,NA,default,20,Yes,NA,Female,English,NA,2
1075,default,block1,jackson,ai,0.02,5999,know,7,know,C,NA,default,20,Yes,NA,Female,English,NA,3
1075,default,block1,jon,ai,0.77,12553,admit,8,admit,C,NA,default,20,Yes,NA,Female,English,NA,4
1075,default,block1,tony,ai,0.05,6070,announce,9,announce,C,NA,default,20,Yes,NA,Female,English,NA,5
1075,default,block1,ballet,ai,0.01,6074,MC,10,MC,MC,NA,default,20,Yes,NA,Female,English,NA,6
1075,default,block1,grace,ai,0.19,8882,confirm,11,confirm,C,NA,default,20,Yes,NA,Female,English,NA,7
1075,default,block1,jayden,ai,0.11,9391,discover,12,discover,C,NA,default,20,Yes,NA,Female,English,NA,8
1075,default,block1,julian,ai,0.02,9194,establish,13,establish,C,NA,default,20,Yes,NA,Female,English,NA,9
1075,default,block1,frank,ai,0.68,7515,suggest,14,suggest,C,NA,default,20,Yes,NA,Female,English,NA,10
1075,default,block1,owen,ai,0.62,7391,acknowledge,15,acknowledge,C,NA,default,20,Yes,NA,Female,English,NA,11
1075,default,block1,emma,ai,0.85,28198,be_right,16,be_right,C,NA,default,20,Yes,NA,Female,English,NA,12
1075,default,block1,pizza,ai,0.01,7062,MC,17,MC,MC,NA,default,20,Yes,NA,Female,English,NA,13
1075,default,block1,mary,ai,0.3,5908,prove,18,prove,C,NA,default,20,Yes,NA,Female,English,NA,14
1075,default,block1,josh,ai,0.19,4484,reveal,19,reveal,C,NA,default,20,Yes,NA,Female,English,NA,15
1075,default,block1,olivia,ai,0.13,5197,see,20,see,C,NA,default,20,Yes,NA,Female,English,NA,16
1075,default,block1,charley,ai,0.82,5318,be_annoyed,21,be_annoyed,C,NA,default,20,Yes,NA,Female,English,NA,17
1075,default,block1,garage,ai,0,8285,MC,22,MC,MC,NA,default,20,Yes,NA,Female,English,NA,18
1075,default,block1,hat,ai,0.1,5908,MC,23,MC,MC,NA,default,20,Yes,NA,Female,English,NA,19
1075,default,block1,sophia,ai,0.97,9127,pretend,24,pretend,C,NA,default,20,Yes,NA,Female,English,NA,20
1075,default,block1,muffins,ai,0.03,4807,MC,25,MC,MC,NA,default,20,Yes,NA,Female,English,NA,21
1075,default,block1,isabella,ai,0.73,11825,say,26,say,C,NA,default,20,Yes,NA,Female,English,NA,22
1075,default,block1,mia,ai,0.03,6237,inform,27,inform,C,NA,default,20,Yes,NA,Female,English,NA,23
1075,default,block1,josie,ai,0.2,18436,demonstrate,28,demonstrate,C,NA,default,20,Yes,NA,Female,English,NA,24
1075,default,block1,emily,ai,0.02,5337,hear,29,hear,C,NA,default,20,Yes,NA,Female,English,NA,25
1075,default,block1,zoe,ai,0.05,11429,confess,30,confess,C,NA,default,20,Yes,NA,Female,English,NA,26
1075,default,block2,danny,projective,0.2,9013,think,32,think,C,NA,default,20,Yes,NA,Female,English,NA,27
1075,default,block2,mary,projective,0.11,14010,prove,33,prove,C,NA,default,20,Yes,NA,Female,English,NA,28
1075,default,block2,muffins,projective,0.98,4280,MC,34,MC,MC,NA,default,20,Yes,NA,Female,English,NA,29
1075,default,block2,jon,projective,0.02,7020,admit,35,admit,C,NA,default,20,Yes,NA,Female,English,NA,30
1075,default,block2,emily,projective,0.79,6008,hear,36,hear,C,NA,default,20,Yes,NA,Female,English,NA,31
1075,default,block2,sophia,projective,0.13,8344,pretend,37,pretend,C,NA,default,20,Yes,NA,Female,English,NA,32
1075,default,block2,hat,projective,1,4933,MC,38,MC,MC,NA,default,20,Yes,NA,Female,English,NA,33
1075,default,block2,kids,projective,0.98,4278,MC,39,MC,MC,NA,default,20,Yes,NA,Female,English,NA,34
1075,default,block2,emma,projective,0.02,24196,be_right,40,be_right,C,NA,default,20,Yes,NA,Female,English,NA,35
1075,default,block2,jackson,projective,0.89,7863,know,41,know,C,NA,default,20,Yes,NA,Female,English,NA,36
1075,default,block2,olivia,projective,0.93,6378,see,42,see,C,NA,default,20,Yes,NA,Female,English,NA,37
1075,default,block2,garage,projective,0.98,5674,MC,43,MC,MC,NA,default,20,Yes,NA,Female,English,NA,38
1075,default,block2,julian,projective,0.18,7423,establish,44,establish,C,NA,default,20,Yes,NA,Female,English,NA,39
1075,default,block2,josh,projective,0.03,12172,reveal,45,reveal,C,NA,default,20,Yes,NA,Female,English,NA,40
1075,default,block2,grace,projective,0.03,5583,confirm,46,confirm,C,NA,default,20,Yes,NA,Female,English,NA,41
1075,default,block2,charley,projective,1,7053,be_annoyed,47,be_annoyed,C,NA,default,20,Yes,NA,Female,English,NA,42
1075,default,block2,frank,projective,0.12,8664,suggest,48,suggest,C,NA,default,20,Yes,NA,Female,English,NA,43
1075,default,block2,ballet,projective,1,3843,MC,49,MC,MC,NA,default,20,Yes,NA,Female,English,NA,44
1075,default,block2,mia,projective,0.9,18166,inform,50,inform,C,NA,default,20,Yes,NA,Female,English,NA,45
1075,default,block2,zoe,projective,0.93,4824,confess,51,confess,C,NA,default,20,Yes,NA,Female,English,NA,46
1075,default,block2,owen,projective,0.97,4191,acknowledge,52,acknowledge,C,NA,default,20,Yes,NA,Female,English,NA,47
1075,default,block2,josie,projective,0.17,4314,demonstrate,53,demonstrate,C,NA,default,20,Yes,NA,Female,English,NA,48
1075,default,block2,tony,projective,0.04,5961,announce,54,announce,C,NA,default,20,Yes,NA,Female,English,NA,49
1075,default,block2,isabella,projective,0.04,13081,say,55,say,C,NA,default,20,Yes,NA,Female,English,NA,50
1075,default,block2,jayden,projective,0.68,10835,discover,56,discover,C,NA,default,20,Yes,NA,Female,English,NA,51
1075,default,block2,pizza,projective,1,3392,MC,57,MC,MC,NA,default,20,Yes,NA,Female,English,NA,52
1074,default,block1,olivia,ai,0.25,20965,demonstrate,5,demonstrate,C,NA,default,25,Yes,NA,Female,English,NA,1
1074,default,block1,jayden,ai,0.02,11737,prove,6,prove,C,NA,default,25,Yes,NA,Female,English,NA,2
1074,default,block1,hat,ai,0,8048,MC,7,MC,MC,NA,default,25,Yes,NA,Female,English,NA,3
1074,default,block1,julian,ai,0,6159,inform,8,inform,C,NA,default,25,Yes,NA,Female,English,NA,4
1074,default,block1,zoe,ai,0.0600000000000001,5713,announce,9,announce,C,NA,default,25,Yes,NA,Female,English,NA,5
1074,default,block1,pizza,ai,0.02,6385,MC,10,MC,MC,NA,default,25,Yes,NA,Female,English,NA,6
1074,default,block1,tony,ai,0,9776,establish,11,establish,C,NA,default,25,Yes,NA,Female,English,NA,7
1074,default,block1,mia,ai,0.02,7910,hear,12,hear,C,NA,default,25,Yes,NA,Female,English,NA,8
1074,default,block1,mary,ai,0,6795,know,13,know,C,NA,default,25,Yes,NA,Female,English,NA,9
1074,default,block1,emily,ai,0.8,9733,confirm,14,confirm,C,NA,default,25,Yes,NA,Female,English,NA,10
1074,default,block1,muffins,ai,0.03,6194,MC,15,MC,MC,NA,default,25,Yes,NA,Female,English,NA,11
1074,default,block1,grace,ai,0.24,7204,confess,16,confess,C,NA,default,25,Yes,NA,Female,English,NA,12
1074,default,block1,sophia,ai,0.51,12130,admit,17,admit,C,NA,default,25,Yes,NA,Female,English,NA,13
1074,default,block1,danny,ai,0.92,8113,think,18,think,C,NA,default,25,Yes,NA,Female,English,NA,14
1074,default,block1,josie,ai,1,8285,be_right,19,be_right,C,NA,default,25,Yes,NA,Female,English,NA,15
1074,default,block1,kids,ai,0.07,6498,MC,20,MC,MC,NA,default,25,Yes,NA,Female,English,NA,16
1074,default,block1,emma,ai,0.81,5478,pretend,21,pretend,C,NA,default,25,Yes,NA,Female,English,NA,17
1074,default,block1,josh,ai,0.61,6550,see,22,see,C,NA,default,25,Yes,NA,Female,English,NA,18
1074,default,block1,isabella,ai,0.3,9243,acknowledge,23,acknowledge,C,NA,default,25,Yes,NA,Female,English,NA,19
1074,default,block1,garage,ai,0.02,11325,MC,24,MC,MC,NA,default,25,Yes,NA,Female,English,NA,20
1074,default,block1,ballet,ai,0,3911,MC,25,MC,MC,NA,default,25,Yes,NA,Female,English,NA,21
1074,default,block1,jackson,ai,0.8,5326,say,26,say,C,NA,default,25,Yes,NA,Female,English,NA,22
1074,default,block1,jon,ai,0.61,4226,discover,27,discover,C,NA,default,25,Yes,NA,Female,English,NA,23
1074,default,block1,charley,ai,0.88,4835,be_annoyed,28,be_annoyed,C,NA,default,25,Yes,NA,Female,English,NA,24
1074,default,block1,owen,ai,0.68,4626,suggest,29,suggest,C,NA,default,25,Yes,NA,Female,English,NA,25
1074,default,block1,frank,ai,0.15,4610,reveal,30,reveal,C,NA,default,25,Yes,NA,Female,English,NA,26
1074,default,block2,garage,projective,0.97,6873,MC,32,MC,MC,NA,default,25,Yes,NA,Female,English,NA,27
1074,default,block2,olivia,projective,0.2,8651,demonstrate,33,demonstrate,C,NA,default,25,Yes,NA,Female,English,NA,28
1074,default,block2,hat,projective,1,105346,MC,34,MC,MC,NA,default,25,Yes,NA,Female,English,NA,29
1074,default,block2,kids,projective,1,16503,MC,35,MC,MC,NA,default,25,Yes,NA,Female,English,NA,30
1074,default,block2,mia,projective,0.41,5431,hear,36,hear,C,NA,default,25,Yes,NA,Female,English,NA,31
1074,default,block2,josh,projective,0.67,7913,see,37,see,C,NA,default,25,Yes,NA,Female,English,NA,32
1074,default,block2,emma,projective,0.01,8747,pretend,38,pretend,C,NA,default,25,Yes,NA,Female,English,NA,33
1074,default,block2,isabella,projective,0.8,5253,acknowledge,39,acknowledge,C,NA,default,25,Yes,NA,Female,English,NA,34
1074,default,block2,emily,projective,0,4531,confirm,40,confirm,C,NA,default,25,Yes,NA,Female,English,NA,35
1074,default,block2,mary,projective,0.99,4184,know,41,know,C,NA,default,25,Yes,NA,Female,English,NA,36
1074,default,block2,zoe,projective,0.67,4916,announce,42,announce,C,NA,default,25,Yes,NA,Female,English,NA,37
1074,default,block2,julian,projective,0.86,6784,inform,43,inform,C,NA,default,25,Yes,NA,Female,English,NA,38
1074,default,block2,josie,projective,0.14,18212,be_right,44,be_right,C,NA,default,25,Yes,NA,Female,English,NA,39
1074,default,block2,ballet,projective,1,3815,MC,45,MC,MC,NA,default,25,Yes,NA,Female,English,NA,40
1074,default,block2,frank,projective,1,5742,reveal,46,reveal,C,NA,default,25,Yes,NA,Female,English,NA,41
1074,default,block2,charley,projective,0.75,9518,be_annoyed,47,be_annoyed,C,NA,default,25,Yes,NA,Female,English,NA,42
1074,default,block2,grace,projective,0.84,5758,confess,48,confess,C,NA,default,25,Yes,NA,Female,English,NA,43
1074,default,block2,jayden,projective,0.28,4311,prove,49,prove,C,NA,default,25,Yes,NA,Female,English,NA,44
1074,default,block2,tony,projective,0.33,4400,establish,50,establish,C,NA,default,25,Yes,NA,Female,English,NA,45
1074,default,block2,sophia,projective,0.77,5831,admit,51,admit,C,NA,default,25,Yes,NA,Female,English,NA,46
1074,default,block2,danny,projective,0.01,9035,think,52,think,C,NA,default,25,Yes,NA,Female,English,NA,47
1074,default,block2,jackson,projective,0.6,6930,say,53,say,C,NA,default,25,Yes,NA,Female,English,NA,48
1074,default,block2,muffins,projective,1,4113,MC,54,MC,MC,NA,default,25,Yes,NA,Female,English,NA,49
1074,default,block2,jon,projective,0.76,6233,discover,55,discover,C,NA,default,25,Yes,NA,Female,English,NA,50
1074,default,block2,pizza,projective,0.99,4103,MC,56,MC,MC,NA,default,25,Yes,NA,Female,English,NA,51
1074,default,block2,owen,projective,0.26,6840,suggest,57,suggest,C,NA,default,25,Yes,NA,Female,English,NA,52
1069,default,block1,mary,ai,0.35,18629,inform,5,inform,C,NA,default,20,Yes,NA,Female,English,NA,1
1069,default,block1,zoe,ai,0.01,7997,reveal,6,reveal,C,NA,default,20,Yes,NA,Female,English,NA,2
1069,default,block1,hat,ai,0.98,6239,MC,7,MC,MC,NA,default,20,Yes,NA,Female,English,NA,3
1069,default,block1,frank,ai,0.03,3965,say,8,say,C,NA,default,20,Yes,NA,Female,English,NA,4
1069,default,block1,josh,ai,0.89,9431,be_right,9,be_right,C,NA,default,20,Yes,NA,Female,English,NA,5
1069,default,block1,grace,ai,0.03,7888,confess,10,confess,C,NA,default,20,Yes,NA,Female,English,NA,6
1069,default,block1,jayden,ai,0.11,11136,discover,11,discover,C,NA,default,20,Yes,NA,Female,English,NA,7
1069,default,block1,josie,ai,0.01,5240,establish,12,establish,C,NA,default,20,Yes,NA,Female,English,NA,8
1069,default,block1,isabella,ai,0.04,3701,admit,13,admit,C,NA,default,20,Yes,NA,Female,English,NA,9
1069,default,block1,owen,ai,0.05,6171,know,14,know,C,NA,default,20,Yes,NA,Female,English,NA,10
1069,default,block1,olivia,ai,0.08,7067,suggest,15,suggest,C,NA,default,20,Yes,NA,Female,English,NA,11
1069,default,block1,muffins,ai,0.89,9149,MC,16,MC,MC,NA,default,20,Yes,NA,Female,English,NA,12
1069,default,block1,mia,ai,0.3,5207,acknowledge,17,acknowledge,C,NA,default,20,Yes,NA,Female,English,NA,13
1069,default,block1,kids,ai,0.87,4289,MC,18,MC,MC,NA,default,20,Yes,NA,Female,English,NA,14
1069,default,block1,charley,ai,0.19,8820,prove,19,prove,C,NA,default,20,Yes,NA,Female,English,NA,15
1069,default,block1,ballet,ai,0.87,3543,MC,20,MC,MC,NA,default,20,Yes,NA,Female,English,NA,16
1069,default,block1,emily,ai,0.78,9356,pretend,21,pretend,C,NA,default,20,Yes,NA,Female,English,NA,17
1069,default,block1,danny,ai,0.09,3454,see,22,see,C,NA,default,20,Yes,NA,Female,English,NA,18
1069,default,block1,tony,ai,0.05,6060,think,23,think,C,NA,default,20,Yes,NA,Female,English,NA,19
1069,default,block1,jackson,ai,0.8,4081,demonstrate,24,demonstrate,C,NA,default,20,Yes,NA,Female,English,NA,20
1069,default,block1,sophia,ai,0.1,3910,announce,25,announce,C,NA,default,20,Yes,NA,Female,English,NA,21
1069,default,block1,emma,ai,0.05,5272,hear,26,hear,C,NA,default,20,Yes,NA,Female,English,NA,22
1069,default,block1,pizza,ai,0.93,7650,MC,27,MC,MC,NA,default,20,Yes,NA,Female,English,NA,23
1069,default,block1,julian,ai,0.1,4181,confirm,28,confirm,C,NA,default,20,Yes,NA,Female,English,NA,24
1069,default,block1,garage,ai,0.81,5270,MC,29,MC,MC,NA,default,20,Yes,NA,Female,English,NA,25
1069,default,block1,jon,ai,0.93,5458,be_annoyed,30,be_annoyed,C,NA,default,20,Yes,NA,Female,English,NA,26
1069,default,block2,mary,projective,0.9,6065,inform,32,inform,C,NA,default,20,Yes,NA,Female,English,NA,27
1069,default,block2,jayden,projective,0.93,7088,discover,33,discover,C,NA,default,20,Yes,NA,Female,English,NA,28
1069,default,block2,charley,projective,0.09,4887,prove,34,prove,C,NA,default,20,Yes,NA,Female,English,NA,29
1069,default,block2,danny,projective,0.94,6110,see,35,see,C,NA,default,20,Yes,NA,Female,English,NA,30
1069,default,block2,jackson,projective,0.04,5456,demonstrate,36,demonstrate,C,NA,default,20,Yes,NA,Female,English,NA,31
1069,default,block2,pizza,projective,0.94,5044,MC,37,MC,MC,NA,default,20,Yes,NA,Female,English,NA,32
1069,default,block2,sophia,projective,0.93,7099,announce,38,announce,C,NA,default,20,Yes,NA,Female,English,NA,33
1069,default,block2,frank,projective,0.92,5559,say,39,say,C,NA,default,20,Yes,NA,Female,English,NA,34
1069,default,block2,mia,projective,0.91,5391,acknowledge,40,acknowledge,C,NA,default,20,Yes,NA,Female,English,NA,35
1069,default,block2,kids,projective,0.84,5522,MC,41,MC,MC,NA,default,20,Yes,NA,Female,English,NA,36
1069,default,block2,julian,projective,0.08,5956,confirm,42,confirm,C,NA,default,20,Yes,NA,Female,English,NA,37
1069,default,block2,zoe,projective,0.89,5575,reveal,43,reveal,C,NA,default,20,Yes,NA,Female,English,NA,38
1069,default,block2,jon,projective,0.89,5821,be_annoyed,44,be_annoyed,C,NA,default,20,Yes,NA,Female,English,NA,39
1069,default,block2,emily,projective,0.15,6268,pretend,45,pretend,C,NA,default,20,Yes,NA,Female,English,NA,40
1069,default,block2,owen,projective,0.94,4209,know,46,know,C,NA,default,20,Yes,NA,Female,English,NA,41
1069,default,block2,hat,projective,0.88,4531,MC,47,MC,MC,NA,default,20,Yes,NA,Female,English,NA,42
1069,default,block2,ballet,projective,0.93,2753,MC,48,MC,MC,NA,default,20,Yes,NA,Female,English,NA,43
1069,default,block2,tony,projective,0.79,8512,think,49,think,C,NA,default,20,Yes,NA,Female,English,NA,44
1069,default,block2,emma,projective,0.82,5084,hear,50,hear,C,NA,default,20,Yes,NA,Female,English,NA,45
1069,default,block2,olivia,projective,0.21,4386,suggest,51,suggest,C,NA,default,20,Yes,NA,Female,English,NA,46
1069,default,block2,josh,projective,0.06,8071,be_right,52,be_right,C,NA,default,20,Yes,NA,Female,English,NA,47
1069,default,block2,muffins,projective,0.79,5286,MC,53,MC,MC,NA,default,20,Yes,NA,Female,English,NA,48
1069,default,block2,isabella,projective,0.16,4367,admit,54,admit,C,NA,default,20,Yes,NA,Female,English,NA,49
1069,default,block2,josie,projective,0.15,6905,establish,55,establish,C,NA,default,20,Yes,NA,Female,English,NA,50
1069,default,block2,grace,projective,0.93,6992,confess,56,confess,C,NA,default,20,Yes,NA,Female,English,NA,51
1069,default,block2,garage,projective,0.94,4089,MC,57,MC,MC,NA,default,20,Yes,NA,Female,English,NA,52
1065,default,block1,pizza,ai,0.03,13321,MC,5,MC,MC,NA,default,19,Yes,NA,Female,English,NA,1
1065,default,block1,jayden,ai,0.78,9854,discover,6,discover,C,NA,default,19,Yes,NA,Female,English,NA,2
1065,default,block1,grace,ai,0.78,12963,reveal,7,reveal,C,NA,default,19,Yes,NA,Female,English,NA,3
1065,default,block1,tony,ai,0.8,5564,confirm,8,confirm,C,NA,default,19,Yes,NA,Female,English,NA,4
1065,default,block1,emma,ai,0.78,10905,be_annoyed,9,be_annoyed,C,NA,default,19,Yes,NA,Female,English,NA,5
1065,default,block1,jackson,ai,0.65,7646,say,10,say,C,NA,default,19,Yes,NA,Female,English,NA,6
1065,default,block1,charley,ai,0.73,10654,prove,11,prove,C,NA,default,19,Yes,NA,Female,English,NA,7
1065,default,block1,mary,ai,0.87,8491,announce,12,announce,C,NA,default,19,Yes,NA,Female,English,NA,8
1065,default,block1,kids,ai,0.32,9158,MC,13,MC,MC,NA,default,19,Yes,NA,Female,English,NA,9
1065,default,block1,josh,ai,0.67,7885,establish,14,establish,C,NA,default,19,Yes,NA,Female,English,NA,10
1065,default,block1,ballet,ai,0.34,10255,MC,15,MC,MC,NA,default,19,Yes,NA,Female,English,NA,11
1065,default,block1,julian,ai,0.5,11361,admit,16,admit,C,NA,default,19,Yes,NA,Female,English,NA,12
1065,default,block1,danny,ai,0.41,7934,inform,17,inform,C,NA,default,19,Yes,NA,Female,English,NA,13
1065,default,block1,zoe,ai,0.59,5500,demonstrate,18,demonstrate,C,NA,default,19,Yes,NA,Female,English,NA,14
1065,default,block1,olivia,ai,0.91,7349,pretend,19,pretend,C,NA,default,19,Yes,NA,Female,English,NA,15
1065,default,block1,josie,ai,0.86,5804,suggest,20,suggest,C,NA,default,19,Yes,NA,Female,English,NA,16
1065,default,block1,sophia,ai,0.69,6324,confess,21,confess,C,NA,default,19,Yes,NA,Female,English,NA,17
1065,default,block1,jon,ai,0.42,6885,acknowledge,22,acknowledge,C,NA,default,19,Yes,NA,Female,English,NA,18
1065,default,block1,frank,ai,0.43,11856,know,23,know,C,NA,default,19,Yes,NA,Female,English,NA,19
1065,default,block1,isabella,ai,0.73,20058,think,24,think,C,NA,default,19,Yes,NA,Female,English,NA,20
1065,default,block1,emily,ai,0.62,20870,see,25,see,C,NA,default,19,Yes,NA,Female,English,NA,21
1065,default,block1,mia,ai,0.95,9799,be_right,26,be_right,C,NA,default,19,Yes,NA,Female,English,NA,22
1065,default,block1,hat,ai,0.34,5171,MC,27,MC,MC,NA,default,19,Yes,NA,Female,English,NA,23
1065,default,block1,muffins,ai,0.33,8062,MC,28,MC,MC,NA,default,19,Yes,NA,Female,English,NA,24
1065,default,block1,owen,ai,0.37,9950,hear,29,hear,C,NA,default,19,Yes,NA,Female,English,NA,25
1065,default,block1,garage,ai,0.27,7358,MC,30,MC,MC,NA,default,19,Yes,NA,Female,English,NA,26
1065,default,block2,tony,projective,0.11,23271,confirm,32,confirm,C,NA,default,19,Yes,NA,Female,English,NA,27
1065,default,block2,garage,projective,0.84,8390,MC,33,MC,MC,NA,default,19,Yes,NA,Female,English,NA,28
1065,default,block2,jayden,projective,0.72,19026,discover,34,discover,C,NA,default,19,Yes,NA,Female,English,NA,29
1065,default,block2,julian,projective,0.23,8534,admit,35,admit,C,NA,default,19,Yes,NA,Female,English,NA,30
1065,default,block2,danny,projective,0.73,12067,inform,36,inform,C,NA,default,19,Yes,NA,Female,English,NA,31
1065,default,block2,isabella,projective,0.69,11087,think,37,think,C,NA,default,19,Yes,NA,Female,English,NA,32
1065,default,block2,charley,projective,0.15,7055,prove,38,prove,C,NA,default,19,Yes,NA,Female,English,NA,33
1065,default,block2,pizza,projective,1,8711,MC,39,MC,MC,NA,default,19,Yes,NA,Female,English,NA,34
1065,default,block2,zoe,projective,0.04,8382,demonstrate,40,demonstrate,C,NA,default,19,Yes,NA,Female,English,NA,35
1065,default,block2,sophia,projective,0.33,6229,confess,41,confess,C,NA,default,19,Yes,NA,Female,English,NA,36
1065,default,block2,josie,projective,0.23,10504,suggest,42,suggest,C,NA,default,19,Yes,NA,Female,English,NA,37
1065,default,block2,emily,projective,0.68,20777,see,43,see,C,NA,default,19,Yes,NA,Female,English,NA,38
1065,default,block2,emma,projective,0.94,6165,be_annoyed,44,be_annoyed,C,NA,default,19,Yes,NA,Female,English,NA,39
1065,default,block2,jon,projective,0.69,7934,acknowledge,45,acknowledge,C,NA,default,19,Yes,NA,Female,English,NA,40
1065,default,block2,josh,projective,0.13,9630,establish,46,establish,C,NA,default,19,Yes,NA,Female,English,NA,41
1065,default,block2,ballet,projective,0.85,8150,MC,47,MC,MC,NA,default,19,Yes,NA,Female,English,NA,42
1065,default,block2,jackson,projective,0.07,8438,say,48,say,C,NA,default,19,Yes,NA,Female,English,NA,43
1065,default,block2,mary,projective,0.16,6620,announce,49,announce,C,NA,default,19,Yes,NA,Female,English,NA,44
1065,default,block2,olivia,projective,0.14,8209,pretend,50,pretend,C,NA,default,19,Yes,NA,Female,English,NA,45
1065,default,block2,grace,projective,0.27,27324,reveal,51,reveal,C,NA,default,19,Yes,NA,Female,English,NA,46
1065,default,block2,owen,projective,0.74,8445,hear,52,hear,C,NA,default,19,Yes,NA,Female,English,NA,47
1065,default,block2,frank,projective,0.84,9839,know,53,know,C,NA,default,19,Yes,NA,Female,English,NA,48
1065,default,block2,mia,projective,0.01,7998,be_right,54,be_right,C,NA,default,19,Yes,NA,Female,English,NA,49
1065,default,block2,kids,projective,0.98,11236,MC,55,MC,MC,NA,default,19,Yes,NA,Female,English,NA,50
1065,default,block2,hat,projective,0.98,5820,MC,56,MC,MC,NA,default,19,Yes,NA,Female,English,NA,51
1065,default,block2,muffins,projective,0.99,5668,MC,57,MC,MC,NA,default,19,Yes,NA,Female,English,NA,52
1073,default,block1,josie,ai,0.78,36799,admit,5,admit,C,NA,default,24,Yes,NA,Female,English,NA,1
1073,default,block1,hat,ai,0.36,10107,MC,6,MC,MC,NA,default,24,Yes,NA,Female,English,NA,2
1073,default,block1,zoe,ai,0.83,6108,prove,7,prove,C,NA,default,24,Yes,NA,Female,English,NA,3
1073,default,block1,sophia,ai,0.84,4782,discover,8,discover,C,NA,default,24,Yes,NA,Female,English,NA,4
1073,default,block1,owen,ai,0.5,25787,suggest,9,suggest,C,NA,default,24,Yes,NA,Female,English,NA,5
1073,default,block1,jon,ai,0.77,9624,be_annoyed,10,be_annoyed,C,NA,default,24,Yes,NA,Female,English,NA,6
1073,default,block1,julian,ai,0.5,9547,say,11,say,C,NA,default,24,Yes,NA,Female,English,NA,7
1073,default,block1,mary,ai,0.38,5246,see,12,see,C,NA,default,24,Yes,NA,Female,English,NA,8
1073,default,block1,danny,ai,0.79,6915,announce,13,announce,C,NA,default,24,Yes,NA,Female,English,NA,9
1073,default,block1,tony,ai,0.64,13069,pretend,14,pretend,C,NA,default,24,Yes,NA,Female,English,NA,10
1073,default,block1,jackson,ai,0.77,11021,be_right,15,be_right,C,NA,default,24,Yes,NA,Female,English,NA,11
1073,default,block1,frank,ai,0.65,6606,demonstrate,16,demonstrate,C,NA,default,24,Yes,NA,Female,English,NA,12
1073,default,block1,muffins,ai,0.0600000000000001,4138,MC,17,MC,MC,NA,default,24,Yes,NA,Female,English,NA,13
1073,default,block1,charley,ai,0.69,3745,establish,18,establish,C,NA,default,24,Yes,NA,Female,English,NA,14
1073,default,block1,pizza,ai,0.04,10588,MC,19,MC,MC,NA,default,24,Yes,NA,Female,English,NA,15
1073,default,block1,garage,ai,0.11,4048,MC,20,MC,MC,NA,default,24,Yes,NA,Female,English,NA,16
1073,default,block1,isabella,ai,0.88,3777,hear,21,hear,C,NA,default,24,Yes,NA,Female,English,NA,17
1073,default,block1,olivia,ai,0.75,21544,inform,22,inform,C,NA,default,24,Yes,NA,Female,English,NA,18
1073,default,block1,jayden,ai,0.76,3026,confess,23,confess,C,NA,default,24,Yes,NA,Female,English,NA,19
1073,default,block1,kids,ai,0.04,2662,MC,24,MC,MC,NA,default,24,Yes,NA,Female,English,NA,20
1073,default,block1,emma,ai,0.67,4656,acknowledge,25,acknowledge,C,NA,default,24,Yes,NA,Female,English,NA,21
1073,default,block1,josh,ai,0.73,5508,confirm,26,confirm,C,NA,default,24,Yes,NA,Female,English,NA,22
1073,default,block1,ballet,ai,0.05,5841,MC,27,MC,MC,NA,default,24,Yes,NA,Female,English,NA,23
1073,default,block1,mia,ai,0.76,18756,know,28,know,C,NA,default,24,Yes,NA,Female,English,NA,24
1073,default,block1,grace,ai,0.81,5003,reveal,29,reveal,C,NA,default,24,Yes,NA,Female,English,NA,25
1073,default,block1,emily,ai,0.75,2905,think,30,think,C,NA,default,24,Yes,NA,Female,English,NA,26
1073,default,block2,zoe,projective,0.17,6879,prove,32,prove,C,NA,default,24,Yes,NA,Female,English,NA,27
1073,default,block2,jon,projective,0.78,6815,be_annoyed,33,be_annoyed,C,NA,default,24,Yes,NA,Female,English,NA,28
1073,default,block2,garage,projective,0.97,8433,MC,34,MC,MC,NA,default,24,Yes,NA,Female,English,NA,29
1073,default,block2,ballet,projective,0.86,4545,MC,35,MC,MC,NA,default,24,Yes,NA,Female,English,NA,30
1073,default,block2,hat,projective,0.95,4976,MC,36,MC,MC,NA,default,24,Yes,NA,Female,English,NA,31
1073,default,block2,emma,projective,0.2,8791,acknowledge,37,acknowledge,C,NA,default,24,Yes,NA,Female,English,NA,32
1073,default,block2,mia,projective,0.83,13252,know,38,know,C,NA,default,24,Yes,NA,Female,English,NA,33
1073,default,block2,sophia,projective,0.89,10579,discover,39,discover,C,NA,default,24,Yes,NA,Female,English,NA,34
1073,default,block2,frank,projective,0.25,3549,demonstrate,40,demonstrate,C,NA,default,24,Yes,NA,Female,English,NA,35
1073,default,block2,olivia,projective,0.86,5403,inform,41,inform,C,NA,default,24,Yes,NA,Female,English,NA,36
1073,default,block2,jackson,projective,0.13,7487,be_right,42,be_right,C,NA,default,24,Yes,NA,Female,English,NA,37
1073,default,block2,pizza,projective,0.95,3436,MC,43,MC,MC,NA,default,24,Yes,NA,Female,English,NA,38
1073,default,block2,danny,projective,0.19,4344,announce,44,announce,C,NA,default,24,Yes,NA,Female,English,NA,39
1073,default,block2,emily,projective,0.87,3696,think,45,think,C,NA,default,24,Yes,NA,Female,English,NA,40
1073,default,block2,mary,projective,0.87,4349,see,46,see,C,NA,default,24,Yes,NA,Female,English,NA,41
1073,default,block2,tony,projective,0.62,9566,pretend,47,pretend,C,NA,default,24,Yes,NA,Female,English,NA,42
1073,default,block2,kids,projective,0.9,8648,MC,48,MC,MC,NA,default,24,Yes,NA,Female,English,NA,43
1073,default,block2,muffins,projective,0.94,2279,MC,49,MC,MC,NA,default,24,Yes,NA,Female,English,NA,44
1073,default,block2,isabella,projective,0.79,3417,hear,50,hear,C,NA,default,24,Yes,NA,Female,English,NA,45
1073,default,block2,charley,projective,0.39,3254,establish,51,establish,C,NA,default,24,Yes,NA,Female,English,NA,46
1073,default,block2,grace,projective,0.32,3462,reveal,52,reveal,C,NA,default,24,Yes,NA,Female,English,NA,47
1073,default,block2,owen,projective,0.48,3950,suggest,53,suggest,C,NA,default,24,Yes,NA,Female,English,NA,48
1073,default,block2,josh,projective,0.21,4034,confirm,54,confirm,C,NA,default,24,Yes,NA,Female,English,NA,49
1073,default,block2,josie,projective,0.6,6478,admit,55,admit,C,NA,default,24,Yes,NA,Female,English,NA,50
1073,default,block2,jayden,projective,0.5,3085,confess,56,confess,C,NA,default,24,Yes,NA,Female,English,NA,51
1073,default,block2,julian,projective,0.22,4864,say,57,say,C,NA,default,24,Yes,NA,Female,English,NA,52
1071,default,block1,isabella,ai,0.02,11299,hear,5,hear,C,NA,default,34,Yes,NA,Female,English,NA,1
1071,default,block1,jon,ai,0.86,8997,be_annoyed,6,be_annoyed,C,NA,default,34,Yes,NA,Female,English,NA,2
1071,default,block1,kids,ai,0.13,10868,MC,7,MC,MC,NA,default,34,Yes,NA,Female,English,NA,3
1071,default,block1,tony,ai,0.47,9657,inform,8,inform,C,NA,default,34,Yes,NA,Female,English,NA,4
1071,default,block1,grace,ai,0.4,8427,see,9,see,C,NA,default,34,Yes,NA,Female,English,NA,5
1071,default,block1,julian,ai,0.38,6748,reveal,10,reveal,C,NA,default,34,Yes,NA,Female,English,NA,6
1071,default,block1,frank,ai,0.45,15227,be_right,11,be_right,C,NA,default,34,Yes,NA,Female,English,NA,7
1071,default,block1,jayden,ai,0.49,10769,pretend,12,pretend,C,NA,default,34,Yes,NA,Female,English,NA,8
1071,default,block1,danny,ai,0.47,10980,think,13,think,C,NA,default,34,Yes,NA,Female,English,NA,9
1071,default,block1,hat,ai,0.17,8690,MC,14,MC,MC,NA,default,34,Yes,NA,Female,English,NA,10
1071,default,block1,jackson,ai,0.17,8851,admit,15,admit,C,NA,default,34,Yes,NA,Female,English,NA,11
1071,default,block1,ballet,ai,0.21,5866,MC,16,MC,MC,NA,default,34,Yes,NA,Female,English,NA,12
1071,default,block1,olivia,ai,0.59,10074,demonstrate,17,demonstrate,C,NA,default,34,Yes,NA,Female,English,NA,13
1071,default,block1,muffins,ai,0.39,8911,MC,18,MC,MC,NA,default,34,Yes,NA,Female,English,NA,14
1071,default,block1,josie,ai,0.18,7444,confess,19,confess,C,NA,default,34,Yes,NA,Female,English,NA,15
1071,default,block1,owen,ai,0.2,7170,acknowledge,20,acknowledge,C,NA,default,34,Yes,NA,Female,English,NA,16
1071,default,block1,emily,ai,0.12,8601,establish,21,establish,C,NA,default,34,Yes,NA,Female,English,NA,17
1071,default,block1,pizza,ai,0.23,5436,MC,22,MC,MC,NA,default,34,Yes,NA,Female,English,NA,18
1071,default,block1,garage,ai,0.21,6158,MC,23,MC,MC,NA,default,34,Yes,NA,Female,English,NA,19
1071,default,block1,mia,ai,0.12,7001,say,24,say,C,NA,default,34,Yes,NA,Female,English,NA,20
1071,default,block1,josh,ai,0.46,10043,prove,25,prove,C,NA,default,34,Yes,NA,Female,English,NA,21
1071,default,block1,charley,ai,0.22,8295,announce,26,announce,C,NA,default,34,Yes,NA,Female,English,NA,22
1071,default,block1,zoe,ai,0.28,13241,suggest,27,suggest,C,NA,default,34,Yes,NA,Female,English,NA,23
1071,default,block1,sophia,ai,0.08,7158,confirm,28,confirm,C,NA,default,34,Yes,NA,Female,English,NA,24
1071,default,block1,emma,ai,0.15,6577,discover,29,discover,C,NA,default,34,Yes,NA,Female,English,NA,25
1071,default,block1,mary,ai,0.37,21639,know,30,know,C,NA,default,34,Yes,NA,Female,English,NA,26
1071,default,block2,olivia,projective,0.01,6410,demonstrate,32,demonstrate,C,NA,default,34,Yes,NA,Female,English,NA,27
1071,default,block2,jayden,projective,0.49,14293,pretend,33,pretend,C,NA,default,34,Yes,NA,Female,English,NA,28
1071,default,block2,garage,projective,0.99,6100,MC,34,MC,MC,NA,default,34,Yes,NA,Female,English,NA,29
1071,default,block2,charley,projective,0.27,9412,announce,35,announce,C,NA,default,34,Yes,NA,Female,English,NA,30
1071,default,block2,sophia,projective,0.08,6898,confirm,36,confirm,C,NA,default,34,Yes,NA,Female,English,NA,31
1071,default,block2,danny,projective,0.09,7118,think,37,think,C,NA,default,34,Yes,NA,Female,English,NA,32
1071,default,block2,pizza,projective,0.98,6232,MC,38,MC,MC,NA,default,34,Yes,NA,Female,English,NA,33
1071,default,block2,jackson,projective,0.27,4687,admit,39,admit,C,NA,default,34,Yes,NA,Female,English,NA,34
1071,default,block2,emily,projective,0.26,6532,establish,40,establish,C,NA,default,34,Yes,NA,Female,English,NA,35
1071,default,block2,kids,projective,1,7302,MC,41,MC,MC,NA,default,34,Yes,NA,Female,English,NA,36
1071,default,block2,muffins,projective,0.99,4361,MC,42,MC,MC,NA,default,34,Yes,NA,Female,English,NA,37
1071,default,block2,hat,projective,1,3922,MC,43,MC,MC,NA,default,34,Yes,NA,Female,English,NA,38
1071,default,block2,zoe,projective,0.28,4105,suggest,44,suggest,C,NA,default,34,Yes,NA,Female,English,NA,39
1071,default,block2,tony,projective,0.34,7446,inform,45,inform,C,NA,default,34,Yes,NA,Female,English,NA,40
1071,default,block2,josh,projective,0.28,5539,prove,46,prove,C,NA,default,34,Yes,NA,Female,English,NA,41
1071,default,block2,julian,projective,0.26,5252,reveal,47,reveal,C,NA,default,34,Yes,NA,Female,English,NA,42
1071,default,block2,jon,projective,0.98,8952,be_annoyed,48,be_annoyed,C,NA,default,34,Yes,NA,Female,English,NA,43
1071,default,block2,mary,projective,1,5275,know,49,know,C,NA,default,34,Yes,NA,Female,English,NA,44
1071,default,block2,grace,projective,0.65,5574,see,50,see,C,NA,default,34,Yes,NA,Female,English,NA,45
1071,default,block2,josie,projective,0.5,9989,confess,51,confess,C,NA,default,34,Yes,NA,Female,English,NA,46
1071,default,block2,emma,projective,0.52,11859,discover,52,discover,C,NA,default,34,Yes,NA,Female,English,NA,47
1071,default,block2,owen,projective,0.41,11645,acknowledge,53,acknowledge,C,NA,default,34,Yes,NA,Female,English,NA,48
1071,default,block2,ballet,projective,0.99,3711,MC,54,MC,MC,NA,default,34,Yes,NA,Female,English,NA,49
1071,default,block2,mia,projective,0.45,5930,say,55,say,C,NA,default,34,Yes,NA,Female,English,NA,50
1071,default,block2,isabella,projective,0.44,5921,hear,56,hear,C,NA,default,34,Yes,NA,Female,English,NA,51
1071,default,block2,frank,projective,0.07,7744,be_right,57,be_right,C,NA,default,34,Yes,NA,Female,English,NA,52
1070,default,block1,owen,projective,1,37036,see,5,see,C,NA,default,36,Yes,NA,Male,English,NA,1
1070,default,block1,muffins,projective,0.11,27545,MC,6,MC,MC,NA,default,36,Yes,NA,Male,English,NA,2
1070,default,block1,grace,projective,0.91,20820,hear,7,hear,C,NA,default,36,Yes,NA,Male,English,NA,3
1070,default,block1,isabella,projective,0.82,22380,discover,8,discover,C,NA,default,36,Yes,NA,Male,English,NA,4
1070,default,block1,tony,projective,0.83,10615,reveal,9,reveal,C,NA,default,36,Yes,NA,Male,English,NA,5
1070,default,block1,zoe,projective,0.81,6472,acknowledge,10,acknowledge,C,NA,default,36,Yes,NA,Male,English,NA,6
1070,default,block1,emily,projective,0.88,13520,be_right,11,be_right,C,NA,default,36,Yes,NA,Male,English,NA,7
1070,default,block1,mary,projective,1,7087,know,12,know,C,NA,default,36,Yes,NA,Male,English,NA,8
1070,default,block1,pizza,projective,1,9839,MC,13,MC,MC,NA,default,36,Yes,NA,Male,English,NA,9
1070,default,block1,danny,projective,1,6176,be_annoyed,14,be_annoyed,C,NA,default,36,Yes,NA,Male,English,NA,10
1070,default,block1,sophia,projective,0,127516,suggest,15,suggest,C,NA,default,36,Yes,NA,Male,English,NA,11
1070,default,block1,jayden,projective,0.11,13824,announce,16,announce,C,NA,default,36,Yes,NA,Male,English,NA,12
1070,default,block1,ballet,projective,1,7808,MC,17,MC,MC,NA,default,36,Yes,NA,Male,English,NA,13
1070,default,block1,hat,projective,1,5384,MC,18,MC,MC,NA,default,36,Yes,NA,Male,English,NA,14
1070,default,block1,frank,projective,0.48,9104,admit,19,admit,C,NA,default,36,Yes,NA,Male,English,NA,15
1070,default,block1,josie,projective,0.5,8672,confess,20,confess,C,NA,default,36,Yes,NA,Male,English,NA,16
1070,default,block1,garage,projective,1,16468,MC,21,MC,MC,NA,default,36,Yes,NA,Male,English,NA,17
1070,default,block1,jackson,projective,0.47,9007,pretend,22,pretend,C,NA,default,36,Yes,NA,Male,English,NA,18
1070,default,block1,emma,projective,0.51,9567,think,23,think,C,NA,default,36,Yes,NA,Male,English,NA,19
1070,default,block1,jon,projective,0.5,9800,inform,24,inform,C,NA,default,36,Yes,NA,Male,English,NA,20
1070,default,block1,charley,projective,0.51,6568,establish,25,establish,C,NA,default,36,Yes,NA,Male,English,NA,21
1070,default,block1,mia,projective,0.53,9432,demonstrate,26,demonstrate,C,NA,default,36,Yes,NA,Male,English,NA,22
1070,default,block1,josh,projective,0.48,7608,confirm,27,confirm,C,NA,default,36,Yes,NA,Male,English,NA,23
1070,default,block1,kids,projective,1,7416,MC,28,MC,MC,NA,default,36,Yes,NA,Male,English,NA,24
1070,default,block1,julian,projective,0.48,9920,say,29,say,C,NA,default,36,Yes,NA,Male,English,NA,25
1070,default,block1,olivia,projective,0.5,5768,prove,30,prove,C,NA,default,36,Yes,NA,Male,English,NA,26
1070,default,block2,jon,ai,0.28,24111,inform,32,inform,C,NA,default,36,Yes,NA,Male,English,NA,27
1070,default,block2,tony,ai,0.32,10731,reveal,33,reveal,C,NA,default,36,Yes,NA,Male,English,NA,28
1070,default,block2,sophia,ai,0.29,4496,suggest,34,suggest,C,NA,default,36,Yes,NA,Male,English,NA,29
1070,default,block2,jayden,ai,0.29,5340,announce,35,announce,C,NA,default,36,Yes,NA,Male,English,NA,30
1070,default,block2,owen,ai,0.29,14395,see,36,see,C,NA,default,36,Yes,NA,Male,English,NA,31
1070,default,block2,emma,ai,0.28,4632,think,37,think,C,NA,default,36,Yes,NA,Male,English,NA,32
1070,default,block2,garage,ai,1,9352,MC,38,MC,MC,NA,default,36,Yes,NA,Male,English,NA,33
1070,default,block2,emily,ai,1,6943,be_right,39,be_right,C,NA,default,36,Yes,NA,Male,English,NA,34
1070,default,block2,mary,ai,1,12364,know,40,know,C,NA,default,36,Yes,NA,Male,English,NA,35
1070,default,block2,josie,ai,1,4876,confess,41,confess,C,NA,default,36,Yes,NA,Male,English,NA,36
1070,default,block2,muffins,ai,0.99,5600,MC,42,MC,MC,NA,default,36,Yes,NA,Male,English,NA,37
1070,default,block2,zoe,ai,1,4848,acknowledge,43,acknowledge,C,NA,default,36,Yes,NA,Male,English,NA,38
1070,default,block2,frank,ai,1,4191,admit,44,admit,C,NA,default,36,Yes,NA,Male,English,NA,39
1070,default,block2,josh,ai,0.18,7017,confirm,45,confirm,C,NA,default,36,Yes,NA,Male,English,NA,40
1070,default,block2,julian,ai,1,6539,say,46,say,C,NA,default,36,Yes,NA,Male,English,NA,41
1070,default,block2,ballet,ai,1,3812,MC,47,MC,MC,NA,default,36,Yes,NA,Male,English,NA,42
1070,default,block2,olivia,ai,0.39,8136,prove,48,prove,C,NA,default,36,Yes,NA,Male,English,NA,43
1070,default,block2,isabella,ai,0.41,7724,discover,49,discover,C,NA,default,36,Yes,NA,Male,English,NA,44
1070,default,block2,pizza,ai,1,26384,MC,50,MC,MC,NA,default,36,Yes,NA,Male,English,NA,45
1070,default,block2,danny,ai,1,4528,be_annoyed,51,be_annoyed,C,NA,default,36,Yes,NA,Male,English,NA,46
1070,default,block2,mia,ai,1,3728,demonstrate,52,demonstrate,C,NA,default,36,Yes,NA,Male,English,NA,47
1070,default,block2,grace,ai,0.33,4232,hear,53,hear,C,NA,default,36,Yes,NA,Male,English,NA,48
1070,default,block2,hat,ai,1,4736,MC,54,MC,MC,NA,default,36,Yes,NA,Male,English,NA,49
1070,default,block2,kids,ai,1,4664,MC,55,MC,MC,NA,default,36,Yes,NA,Male,English,NA,50
1070,default,block2,charley,ai,1,4056,establish,56,establish,C,NA,default,36,Yes,NA,Male,English,NA,51
1070,default,block2,jackson,ai,0.22,7184,pretend,57,pretend,C,NA,default,36,Yes,NA,Male,English,NA,52
1066,default,block1,mary,ai,0.91,14051,acknowledge,5,acknowledge,C,NA,default,19,Yes,NA,Female,English,NA,1
1066,default,block1,josie,ai,0.89,11191,know,6,know,C,NA,default,19,Yes,NA,Female,English,NA,2
1066,default,block1,charley,ai,0.82,9603,demonstrate,7,demonstrate,C,NA,default,19,Yes,NA,Female,English,NA,3
1066,default,block1,olivia,ai,0.83,10354,prove,8,prove,C,NA,default,19,Yes,NA,Female,English,NA,4
1066,default,block1,ballet,ai,0.84,8103,MC,9,MC,MC,NA,default,19,Yes,NA,Female,English,NA,5
1066,default,block1,zoe,ai,0.45,7358,admit,10,admit,C,NA,default,19,Yes,NA,Female,English,NA,6
1066,default,block1,emma,ai,0.71,9926,think,11,think,C,NA,default,19,Yes,NA,Female,English,NA,7
1066,default,block1,josh,ai,0.37,8161,confirm,12,confirm,C,NA,default,19,Yes,NA,Female,English,NA,8
1066,default,block1,kids,ai,0.87,5065,MC,13,MC,MC,NA,default,19,Yes,NA,Female,English,NA,9
1066,default,block1,grace,ai,0.3,6004,suggest,14,suggest,C,NA,default,19,Yes,NA,Female,English,NA,10
1066,default,block1,garage,ai,0.83,6735,MC,15,MC,MC,NA,default,19,Yes,NA,Female,English,NA,11
1066,default,block1,danny,ai,0.3,7880,say,16,say,C,NA,default,19,Yes,NA,Female,English,NA,12
1066,default,block1,jon,ai,0.77,9333,inform,17,inform,C,NA,default,19,Yes,NA,Female,English,NA,13
1066,default,block1,owen,ai,0.27,9058,establish,18,establish,C,NA,default,19,Yes,NA,Female,English,NA,14
1066,default,block1,hat,ai,0.93,4473,MC,19,MC,MC,NA,default,19,Yes,NA,Female,English,NA,15
1066,default,block1,mia,ai,0.85,6917,reveal,20,reveal,C,NA,default,19,Yes,NA,Female,English,NA,16
1066,default,block1,sophia,ai,0.25,7117,be_right,21,be_right,C,NA,default,19,Yes,NA,Female,English,NA,17
1066,default,block1,jayden,ai,0.84,8793,pretend,22,pretend,C,NA,default,19,Yes,NA,Female,English,NA,18
1066,default,block1,isabella,ai,0.39,6667,announce,23,announce,C,NA,default,19,Yes,NA,Female,English,NA,19
1066,default,block1,pizza,ai,0.92,4667,MC,24,MC,MC,NA,default,19,Yes,NA,Female,English,NA,20
1066,default,block1,muffins,ai,0.96,4776,MC,25,MC,MC,NA,default,19,Yes,NA,Female,English,NA,21
1066,default,block1,jackson,ai,0.64,9226,hear,26,hear,C,NA,default,19,Yes,NA,Female,English,NA,22
1066,default,block1,tony,ai,0.6,6432,confess,27,confess,C,NA,default,19,Yes,NA,Female,English,NA,23
1066,default,block1,frank,ai,0.87,6074,be_annoyed,28,be_annoyed,C,NA,default,19,Yes,NA,Female,English,NA,24
1066,default,block1,emily,ai,0.87,5384,discover,29,discover,C,NA,default,19,Yes,NA,Female,English,NA,25
1066,default,block1,julian,ai,0.9,5727,see,30,see,C,NA,default,19,Yes,NA,Female,English,NA,26
1066,default,block2,isabella,projective,0.85,6668,announce,32,announce,C,NA,default,19,Yes,NA,Female,English,NA,27
1066,default,block2,muffins,projective,0.99,4065,MC,33,MC,MC,NA,default,19,Yes,NA,Female,English,NA,28
1066,default,block2,julian,projective,0.87,4846,see,34,see,C,NA,default,19,Yes,NA,Female,English,NA,29
1066,default,block2,jon,projective,0.99,4655,inform,35,inform,C,NA,default,19,Yes,NA,Female,English,NA,30
1066,default,block2,charley,projective,0.96,3883,demonstrate,36,demonstrate,C,NA,default,19,Yes,NA,Female,English,NA,31
1066,default,block2,grace,projective,0.28,5430,suggest,37,suggest,C,NA,default,19,Yes,NA,Female,English,NA,32
1066,default,block2,danny,projective,0.2,5471,say,38,say,C,NA,default,19,Yes,NA,Female,English,NA,33
1066,default,block2,garage,projective,0.99,3201,MC,39,MC,MC,NA,default,19,Yes,NA,Female,English,NA,34
1066,default,block2,josh,projective,0.18,7306,confirm,40,confirm,C,NA,default,19,Yes,NA,Female,English,NA,35
1066,default,block2,jackson,projective,0.97,6361,hear,41,hear,C,NA,default,19,Yes,NA,Female,English,NA,36
1066,default,block2,mia,projective,0.98,5255,reveal,42,reveal,C,NA,default,19,Yes,NA,Female,English,NA,37
1066,default,block2,jayden,projective,0.51,4459,pretend,43,pretend,C,NA,default,19,Yes,NA,Female,English,NA,38
1066,default,block2,sophia,projective,0.09,8941,be_right,44,be_right,C,NA,default,19,Yes,NA,Female,English,NA,39
1066,default,block2,mary,projective,0.98,4394,acknowledge,45,acknowledge,C,NA,default,19,Yes,NA,Female,English,NA,40
1066,default,block2,kids,projective,0.92,4181,MC,46,MC,MC,NA,default,19,Yes,NA,Female,English,NA,41
1066,default,block2,olivia,projective,0.06,5807,prove,47,prove,C,NA,default,19,Yes,NA,Female,English,NA,42
1066,default,block2,ballet,projective,0.97,3871,MC,48,MC,MC,NA,default,19,Yes,NA,Female,English,NA,43
1066,default,block2,emma,projective,0.06,5314,think,49,think,C,NA,default,19,Yes,NA,Female,English,NA,44
1066,default,block2,tony,projective,0.09,4390,confess,50,confess,C,NA,default,19,Yes,NA,Female,English,NA,45
1066,default,block2,hat,projective,0.96,3612,MC,51,MC,MC,NA,default,19,Yes,NA,Female,English,NA,46
1066,default,block2,frank,projective,0.98,4934,be_annoyed,52,be_annoyed,C,NA,default,19,Yes,NA,Female,English,NA,47
1066,default,block2,pizza,projective,0.97,3228,MC,53,MC,MC,NA,default,19,Yes,NA,Female,English,NA,48
1066,default,block2,zoe,projective,0.98,4490,admit,54,admit,C,NA,default,19,Yes,NA,Female,English,NA,49
1066,default,block2,owen,projective,0.2,4639,establish,55,establish,C,NA,default,19,Yes,NA,Female,English,NA,50
1066,default,block2,josie,projective,0.97,4587,know,56,know,C,NA,default,19,Yes,NA,Female,English,NA,51
1066,default,block2,emily,projective,0.97,5950,discover,57,discover,C,NA,default,19,Yes,NA,Female,English,NA,52
