workerid,proliferate.condition.x,block,content,question_type,response,rt,short_trigger,slide_number_in_experiment,trigger,trigger_class,error.x,proliferate.condition.y,age,american,comments,gender,language,error.y,trial
1241,default,block1,mary,ai,0.87,29528,know,5,know,C,NA,default,26,Yes,NA,Female,english,NA,1
1241,default,block1,olivia,ai,0.84,64126,confirm,6,confirm,C,NA,default,26,Yes,NA,Female,english,NA,2
1241,default,block1,mia,ai,0.8,44519,suggest,7,suggest,C,NA,default,26,Yes,NA,Female,english,NA,3
1241,default,block1,charley,ai,0.84,12904,inform,8,inform,C,NA,default,26,Yes,NA,Female,english,NA,4
1241,default,block1,danny,ai,0.74,8143,acknowledge,9,acknowledge,C,NA,default,26,Yes,NA,Female,english,NA,5
1241,default,block1,kids,ai,0.040000000000000036,10685,MC,10,MC,MC,NA,default,26,Yes,NA,Female,english,NA,6
1241,default,block1,frank,ai,0.96,7032,think,11,think,C,NA,default,26,Yes,NA,Female,english,NA,7
1241,default,block1,grace,ai,0.89,5946,discover,12,discover,C,NA,default,26,Yes,NA,Female,english,NA,8
1241,default,block1,josh,ai,0.85,7267,reveal,13,reveal,C,NA,default,26,Yes,NA,Female,english,NA,9
1241,default,block1,owen,ai,0.9299999999999999,6276,demonstrate,14,demonstrate,C,NA,default,26,Yes,NA,Female,english,NA,10
1241,default,block1,isabella,ai,0.9299999999999999,5611,prove,15,prove,C,NA,default,26,Yes,NA,Female,english,NA,11
1241,default,block1,emily,ai,0.88,6046,see,16,see,C,NA,default,26,Yes,NA,Female,english,NA,12
1241,default,block1,pizza,ai,0.050000000000000044,7298,MC,17,MC,MC,NA,default,26,Yes,NA,Female,english,NA,13
1241,default,block1,jon,ai,0.9299999999999999,6650,establish,18,establish,C,NA,default,26,Yes,NA,Female,english,NA,14
1241,default,block1,hat,ai,0.050000000000000044,5936,MC,19,MC,MC,NA,default,26,Yes,NA,Female,english,NA,15
1241,default,block1,ballet,ai,0.050000000000000044,7541,MC,20,MC,MC,NA,default,26,Yes,NA,Female,english,NA,16
1241,default,block1,muffins,ai,0.040000000000000036,4842,MC,21,MC,MC,NA,default,26,Yes,NA,Female,english,NA,17
1241,default,block1,sophia,ai,0.9,11136,confess,22,confess,C,NA,default,26,Yes,NA,Female,english,NA,18
1241,default,block1,emma,ai,0.85,5114,pretend,23,pretend,C,NA,default,26,Yes,NA,Female,english,NA,19
1241,default,block1,julian,ai,0.8200000000000001,4766,be_annoyed,24,be_annoyed,C,NA,default,26,Yes,NA,Female,english,NA,20
1241,default,block1,tony,ai,0.71,15703,be_right,25,be_right,C,NA,default,26,Yes,NA,Female,english,NA,21
1241,default,block1,zoe,ai,0.8200000000000001,4104,admit,26,admit,C,NA,default,26,Yes,NA,Female,english,NA,22
1241,default,block1,jayden,ai,0.8200000000000001,6871,announce,27,announce,C,NA,default,26,Yes,NA,Female,english,NA,23
1241,default,block1,garage,ai,0.07999999999999996,6132,MC,28,MC,MC,NA,default,26,Yes,NA,Female,english,NA,24
1241,default,block1,jackson,ai,0.85,5652,say,29,say,C,NA,default,26,Yes,NA,Female,english,NA,25
1241,default,block1,josie,ai,0.73,4987,hear,30,hear,C,NA,default,26,Yes,NA,Female,english,NA,26
1241,default,block2,emily,projective,0.6,13295,see,32,see,C,NA,default,26,Yes,NA,Female,english,NA,27
1241,default,block2,garage,projective,0.98,7763,MC,33,MC,MC,NA,default,26,Yes,NA,Female,english,NA,28
1241,default,block2,zoe,projective,0.58,8160,admit,34,admit,C,NA,default,26,Yes,NA,Female,english,NA,29
1241,default,block2,julian,projective,0.95,10261,be_annoyed,35,be_annoyed,C,NA,default,26,Yes,NA,Female,english,NA,30
1241,default,block2,grace,projective,0.97,37337,discover,36,discover,C,NA,default,26,Yes,NA,Female,english,NA,31
1241,default,block2,jon,projective,0.92,5948,establish,37,establish,C,NA,default,26,Yes,NA,Female,english,NA,32
1241,default,block2,isabella,projective,0.37,6618,prove,38,prove,C,NA,default,26,Yes,NA,Female,english,NA,33
1241,default,block2,josh,projective,0.87,6909,reveal,39,reveal,C,NA,default,26,Yes,NA,Female,english,NA,34
1241,default,block2,josie,projective,0.51,9709,hear,40,hear,C,NA,default,26,Yes,NA,Female,english,NA,35
1241,default,block2,owen,projective,0.16,6788,demonstrate,41,demonstrate,C,NA,default,26,Yes,NA,Female,english,NA,36
1241,default,block2,mia,projective,0.2,4204,suggest,42,suggest,C,NA,default,26,Yes,NA,Female,english,NA,37
1241,default,block2,mary,projective,0.51,9147,know,43,know,C,NA,default,26,Yes,NA,Female,english,NA,38
1241,default,block2,kids,projective,0.97,5469,MC,44,MC,MC,NA,default,26,Yes,NA,Female,english,NA,39
1241,default,block2,emma,projective,0.12,4876,pretend,45,pretend,C,NA,default,26,Yes,NA,Female,english,NA,40
1241,default,block2,tony,projective,0.24,5044,be_right,46,be_right,C,NA,default,26,Yes,NA,Female,english,NA,41
1241,default,block2,olivia,projective,0.63,4543,confirm,47,confirm,C,NA,default,26,Yes,NA,Female,english,NA,42
1241,default,block2,charley,projective,0.39,7169,inform,48,inform,C,NA,default,26,Yes,NA,Female,english,NA,43
1241,default,block2,danny,projective,0.66,4720,acknowledge,49,acknowledge,C,NA,default,26,Yes,NA,Female,english,NA,44
1241,default,block2,frank,projective,0.28,9751,think,50,think,C,NA,default,26,Yes,NA,Female,english,NA,45
1241,default,block2,jackson,projective,0.46,3865,say,51,say,C,NA,default,26,Yes,NA,Female,english,NA,46
1241,default,block2,pizza,projective,0.97,7423,MC,52,MC,MC,NA,default,26,Yes,NA,Female,english,NA,47
1241,default,block2,muffins,projective,0.98,4442,MC,53,MC,MC,NA,default,26,Yes,NA,Female,english,NA,48
1241,default,block2,jayden,projective,0.67,6953,announce,54,announce,C,NA,default,26,Yes,NA,Female,english,NA,49
1241,default,block2,hat,projective,0.96,3501,MC,55,MC,MC,NA,default,26,Yes,NA,Female,english,NA,50
1241,default,block2,sophia,projective,0.75,4462,confess,56,confess,C,NA,default,26,Yes,NA,Female,english,NA,51
1241,default,block2,ballet,projective,0.96,5819,MC,57,MC,MC,NA,default,26,Yes,NA,Female,english,NA,52
1460,default,block1,emma,projective,0.97,25702,hear,5,hear,C,NA,default,34,Yes,NA,Female,English,NA,1
1460,default,block1,charley,projective,1,136626,know,6,know,C,NA,default,34,Yes,NA,Female,English,NA,2
1460,default,block1,mia,projective,0.95,57807,see,7,see,C,NA,default,34,Yes,NA,Female,English,NA,3
1460,default,block1,jackson,projective,0.99,24636,confirm,8,confirm,C,NA,default,34,Yes,NA,Female,English,NA,4
1460,default,block1,josh,projective,1,14995,reveal,9,reveal,C,NA,default,34,Yes,NA,Female,English,NA,5
1460,default,block1,danny,projective,0.02,78067,suggest,10,suggest,C,NA,default,34,Yes,NA,Female,English,NA,6
1460,default,block1,frank,projective,0.04,6523,be_right,11,be_right,C,NA,default,34,Yes,NA,Female,English,NA,7
1460,default,block1,muffins,projective,0.95,4908,MC,12,MC,MC,NA,default,34,Yes,NA,Female,English,NA,8
1460,default,block1,pizza,projective,0.97,3766,MC,13,MC,MC,NA,default,34,Yes,NA,Female,English,NA,9
1460,default,block1,hat,projective,0.97,5287,MC,14,MC,MC,NA,default,34,Yes,NA,Female,English,NA,10
1460,default,block1,jon,projective,0.96,13156,say,15,say,C,NA,default,34,Yes,NA,Female,English,NA,11
1460,default,block1,kids,projective,0.96,10392,MC,16,MC,MC,NA,default,34,Yes,NA,Female,English,NA,12
1460,default,block1,isabella,projective,1,67676,discover,17,discover,C,NA,default,34,Yes,NA,Female,English,NA,13
1460,default,block1,tony,projective,1,54199,demonstrate,18,demonstrate,C,NA,default,34,Yes,NA,Female,English,NA,14
1460,default,block1,mary,projective,1,6571,inform,19,inform,C,NA,default,34,Yes,NA,Female,English,NA,15
1460,default,block1,josie,projective,0.11,5681,acknowledge,20,acknowledge,C,NA,default,34,Yes,NA,Female,English,NA,16
1460,default,block1,garage,projective,0.64,24223,MC,21,MC,MC,NA,default,34,Yes,NA,Female,English,NA,17
1460,default,block1,julian,projective,0.9,5863,confess,22,confess,C,NA,default,34,Yes,NA,Female,English,NA,18
1460,default,block1,sophia,projective,0.01,48220,prove,23,prove,C,NA,default,34,Yes,NA,Female,English,NA,19
1460,default,block1,grace,projective,0.88,9119,be_annoyed,24,be_annoyed,C,NA,default,34,Yes,NA,Female,English,NA,20
1460,default,block1,emily,projective,0.1,38654,think,25,think,C,NA,default,34,Yes,NA,Female,English,NA,21
1460,default,block1,ballet,projective,0.97,5744,MC,26,MC,MC,NA,default,34,Yes,NA,Female,English,NA,22
1460,default,block1,olivia,projective,0.99,5895,announce,27,announce,C,NA,default,34,Yes,NA,Female,English,NA,23
1460,default,block1,zoe,projective,0.79,4807,establish,28,establish,C,NA,default,34,Yes,NA,Female,English,NA,24
1460,default,block1,owen,projective,0.85,10304,admit,29,admit,C,NA,default,34,Yes,NA,Female,English,NA,25
1460,default,block1,jayden,projective,0.03,12291,pretend,30,pretend,C,NA,default,34,Yes,NA,Female,English,NA,26
1460,default,block2,grace,ai,0.09999999999999998,23447,be_annoyed,32,be_annoyed,C,NA,default,34,Yes,NA,Female,English,NA,27
1460,default,block2,muffins,ai,0.010000000000000009,28204,MC,33,MC,MC,NA,default,34,Yes,NA,Female,English,NA,28
1460,default,block2,ballet,ai,0,8618,MC,34,MC,MC,NA,default,34,Yes,NA,Female,English,NA,29
1460,default,block2,jon,ai,0.96,7890,say,35,say,C,NA,default,34,Yes,NA,Female,English,NA,30
1460,default,block2,mary,ai,0.19999999999999996,71475,inform,36,inform,C,NA,default,34,Yes,NA,Female,English,NA,31
1460,default,block2,isabella,ai,0.91,21456,discover,37,discover,C,NA,default,34,Yes,NA,Female,English,NA,32
1460,default,block2,kids,ai,0.13,41818,MC,38,MC,MC,NA,default,34,Yes,NA,Female,English,NA,33
1460,default,block2,danny,ai,0.96,13384,suggest,39,suggest,C,NA,default,34,Yes,NA,Female,English,NA,34
1460,default,block2,charley,ai,0.94,7648,know,40,know,C,NA,default,34,Yes,NA,Female,English,NA,35
1460,default,block2,hat,ai,0.020000000000000018,8912,MC,41,MC,MC,NA,default,34,Yes,NA,Female,English,NA,36
1460,default,block2,owen,ai,0.96,7623,admit,42,admit,C,NA,default,34,Yes,NA,Female,English,NA,37
1460,default,block2,garage,ai,0,6207,MC,43,MC,MC,NA,default,34,Yes,NA,Female,English,NA,38
1460,default,block2,emma,ai,0.97,4239,hear,44,hear,C,NA,default,34,Yes,NA,Female,English,NA,39
1460,default,block2,josie,ai,0.96,3412,acknowledge,45,acknowledge,C,NA,default,34,Yes,NA,Female,English,NA,40
1460,default,block2,josh,ai,0.96,3492,reveal,46,reveal,C,NA,default,34,Yes,NA,Female,English,NA,41
1460,default,block2,frank,ai,0.96,10484,be_right,47,be_right,C,NA,default,34,Yes,NA,Female,English,NA,42
1460,default,block2,pizza,ai,0,4324,MC,48,MC,MC,NA,default,34,Yes,NA,Female,English,NA,43
1460,default,block2,sophia,ai,0.12,7452,prove,49,prove,C,NA,default,34,Yes,NA,Female,English,NA,44
1460,default,block2,mia,ai,0.95,4792,see,50,see,C,NA,default,34,Yes,NA,Female,English,NA,45
1460,default,block2,emily,ai,0.98,8024,think,51,think,C,NA,default,34,Yes,NA,Female,English,NA,46
1460,default,block2,olivia,ai,0.78,118374,announce,52,announce,C,NA,default,34,Yes,NA,Female,English,NA,47
1460,default,block2,zoe,ai,0.92,9368,establish,53,establish,C,NA,default,34,Yes,NA,Female,English,NA,48
1460,default,block2,jackson,ai,0.9299999999999999,7496,confirm,54,confirm,C,NA,default,34,Yes,NA,Female,English,NA,49
1460,default,block2,jayden,ai,0.98,5608,pretend,55,pretend,C,NA,default,34,Yes,NA,Female,English,NA,50
1460,default,block2,julian,ai,0.27,3944,confess,56,confess,C,NA,default,34,Yes,NA,Female,English,NA,51
1460,default,block2,tony,ai,0.94,3688,demonstrate,57,demonstrate,C,NA,default,34,Yes,NA,Female,English,NA,52
1181,default,block1,zoe,projective,0,25369,hear,5,hear,C,NA,default,33,Yes,Thank you for letting me participate!,Female,English,NA,1
1181,default,block1,mia,projective,0,15631,be_right,6,be_right,C,NA,default,33,Yes,Thank you for letting me participate!,Female,English,NA,2
1181,default,block1,hat,projective,1,10023,MC,7,MC,MC,NA,default,33,Yes,Thank you for letting me participate!,Female,English,NA,3
1181,default,block1,josh,projective,0,10575,demonstrate,8,demonstrate,C,NA,default,33,Yes,Thank you for letting me participate!,Female,English,NA,4
1181,default,block1,jayden,projective,0.87,29424,reveal,9,reveal,C,NA,default,33,Yes,Thank you for letting me participate!,Female,English,NA,5
1181,default,block1,pizza,projective,1,9043,MC,10,MC,MC,NA,default,33,Yes,Thank you for letting me participate!,Female,English,NA,6
1181,default,block1,mary,projective,0.12,11135,inform,11,inform,C,NA,default,33,Yes,Thank you for letting me participate!,Female,English,NA,7
1181,default,block1,charley,projective,0.09,11112,prove,12,prove,C,NA,default,33,Yes,Thank you for letting me participate!,Female,English,NA,8
1181,default,block1,jon,projective,0.09,10807,see,13,see,C,NA,default,33,Yes,Thank you for letting me participate!,Female,English,NA,9
1181,default,block1,jackson,projective,1,9701,admit,14,admit,C,NA,default,33,Yes,Thank you for letting me participate!,Female,English,NA,10
1181,default,block1,garage,projective,0.99,10198,MC,15,MC,MC,NA,default,33,Yes,Thank you for letting me participate!,Female,English,NA,11
1181,default,block1,danny,projective,0.82,52697,know,16,know,C,NA,default,33,Yes,Thank you for letting me participate!,Female,English,NA,12
1181,default,block1,josie,projective,0.09,16335,think,17,think,C,NA,default,33,Yes,Thank you for letting me participate!,Female,English,NA,13
1181,default,block1,olivia,projective,0.86,14096,be_annoyed,18,be_annoyed,C,NA,default,33,Yes,Thank you for letting me participate!,Female,English,NA,14
1181,default,block1,sophia,projective,0.97,9238,discover,19,discover,C,NA,default,33,Yes,Thank you for letting me participate!,Female,English,NA,15
1181,default,block1,frank,projective,0.09,10902,establish,20,establish,C,NA,default,33,Yes,Thank you for letting me participate!,Female,English,NA,16
1181,default,block1,emma,projective,0.1,13062,suggest,21,suggest,C,NA,default,33,Yes,Thank you for letting me participate!,Female,English,NA,17
1181,default,block1,tony,projective,0.03,7674,confirm,22,confirm,C,NA,default,33,Yes,Thank you for letting me participate!,Female,English,NA,18
1181,default,block1,muffins,projective,0.97,7716,MC,23,MC,MC,NA,default,33,Yes,Thank you for letting me participate!,Female,English,NA,19
1181,default,block1,ballet,projective,0.97,7526,MC,24,MC,MC,NA,default,33,Yes,Thank you for letting me participate!,Female,English,NA,20
1181,default,block1,isabella,projective,0.06,8563,acknowledge,25,acknowledge,C,NA,default,33,Yes,Thank you for letting me participate!,Female,English,NA,21
1181,default,block1,kids,projective,0.98,10429,MC,26,MC,MC,NA,default,33,Yes,Thank you for letting me participate!,Female,English,NA,22
1181,default,block1,emily,projective,0.02,11183,pretend,27,pretend,C,NA,default,33,Yes,Thank you for letting me participate!,Female,English,NA,23
1181,default,block1,owen,projective,0.91,19954,confess,28,confess,C,NA,default,33,Yes,Thank you for letting me participate!,Female,English,NA,24
1181,default,block1,julian,projective,0.84,14334,announce,29,announce,C,NA,default,33,Yes,Thank you for letting me participate!,Female,English,NA,25
1181,default,block1,grace,projective,0.13,20313,say,30,say,C,NA,default,33,Yes,Thank you for letting me participate!,Female,English,NA,26
1181,default,block2,ballet,ai,0.030000000000000027,10778,MC,32,MC,MC,NA,default,33,Yes,Thank you for letting me participate!,Female,English,NA,27
1181,default,block2,danny,ai,0.97,10941,know,33,know,C,NA,default,33,Yes,Thank you for letting me participate!,Female,English,NA,28
1181,default,block2,sophia,ai,0.97,17107,discover,34,discover,C,NA,default,33,Yes,Thank you for letting me participate!,Female,English,NA,29
1181,default,block2,garage,ai,0.010000000000000009,7667,MC,35,MC,MC,NA,default,33,Yes,Thank you for letting me participate!,Female,English,NA,30
1181,default,block2,kids,ai,0,12728,MC,36,MC,MC,NA,default,33,Yes,Thank you for letting me participate!,Female,English,NA,31
1181,default,block2,owen,ai,1,10209,confess,37,confess,C,NA,default,33,Yes,Thank you for letting me participate!,Female,English,NA,32
1181,default,block2,jackson,ai,1,10726,admit,38,admit,C,NA,default,33,Yes,Thank you for letting me participate!,Female,English,NA,33
1181,default,block2,jayden,ai,1,10425,reveal,39,reveal,C,NA,default,33,Yes,Thank you for letting me participate!,Female,English,NA,34
1181,default,block2,olivia,ai,1,8167,be_annoyed,40,be_annoyed,C,NA,default,33,Yes,Thank you for letting me participate!,Female,English,NA,35
1181,default,block2,mia,ai,1,10865,be_right,41,be_right,C,NA,default,33,Yes,Thank you for letting me participate!,Female,English,NA,36
1181,default,block2,tony,ai,1,10865,confirm,42,confirm,C,NA,default,33,Yes,Thank you for letting me participate!,Female,English,NA,37
1181,default,block2,julian,ai,1,7333,announce,43,announce,C,NA,default,33,Yes,Thank you for letting me participate!,Female,English,NA,38
1181,default,block2,frank,ai,1,8741,establish,44,establish,C,NA,default,33,Yes,Thank you for letting me participate!,Female,English,NA,39
1181,default,block2,josie,ai,1,10089,think,45,think,C,NA,default,33,Yes,Thank you for letting me participate!,Female,English,NA,40
1181,default,block2,charley,ai,1,6843,prove,46,prove,C,NA,default,33,Yes,Thank you for letting me participate!,Female,English,NA,41
1181,default,block2,josh,ai,1,10318,demonstrate,47,demonstrate,C,NA,default,33,Yes,Thank you for letting me participate!,Female,English,NA,42
1181,default,block2,pizza,ai,0,5329,MC,48,MC,MC,NA,default,33,Yes,Thank you for letting me participate!,Female,English,NA,43
1181,default,block2,zoe,ai,1,6878,hear,49,hear,C,NA,default,33,Yes,Thank you for letting me participate!,Female,English,NA,44
1181,default,block2,emily,ai,1,6394,pretend,50,pretend,C,NA,default,33,Yes,Thank you for letting me participate!,Female,English,NA,45
1181,default,block2,grace,ai,1,5873,say,51,say,C,NA,default,33,Yes,Thank you for letting me participate!,Female,English,NA,46
1181,default,block2,jon,ai,1,7264,see,52,see,C,NA,default,33,Yes,Thank you for letting me participate!,Female,English,NA,47
1181,default,block2,emma,ai,1,6531,suggest,53,suggest,C,NA,default,33,Yes,Thank you for letting me participate!,Female,English,NA,48
1181,default,block2,muffins,ai,0,5052,MC,54,MC,MC,NA,default,33,Yes,Thank you for letting me participate!,Female,English,NA,49
1181,default,block2,mary,ai,1,5341,inform,55,inform,C,NA,default,33,Yes,Thank you for letting me participate!,Female,English,NA,50
1181,default,block2,isabella,ai,1,6079,acknowledge,56,acknowledge,C,NA,default,33,Yes,Thank you for letting me participate!,Female,English,NA,51
1181,default,block2,hat,ai,0,6527,MC,57,MC,MC,NA,default,33,Yes,Thank you for letting me participate!,Female,English,NA,52
1414,default,block1,emma,projective,0.96,20248,know,5,know,C,NA,default,28,Yes,NA,Female,English,NA,1
1414,default,block1,garage,projective,0.98,12771,MC,6,MC,MC,NA,default,28,Yes,NA,Female,English,NA,2
1414,default,block1,charley,projective,0.96,9998,reveal,7,reveal,C,NA,default,28,Yes,NA,Female,English,NA,3
1414,default,block1,josh,projective,0.97,10021,hear,8,hear,C,NA,default,28,Yes,NA,Female,English,NA,4
1414,default,block1,zoe,projective,0.99,15058,establish,9,establish,C,NA,default,28,Yes,NA,Female,English,NA,5
1414,default,block1,grace,projective,0.99,41161,acknowledge,10,acknowledge,C,NA,default,28,Yes,NA,Female,English,NA,6
1414,default,block1,pizza,projective,0.97,10187,MC,11,MC,MC,NA,default,28,Yes,NA,Female,English,NA,7
1414,default,block1,hat,projective,0.99,5480,MC,12,MC,MC,NA,default,28,Yes,NA,Female,English,NA,8
1414,default,block1,josie,projective,0.36,9151,be_right,13,be_right,C,NA,default,28,Yes,NA,Female,English,NA,9
1414,default,block1,jackson,projective,0.99,6241,discover,14,discover,C,NA,default,28,Yes,NA,Female,English,NA,10
1414,default,block1,emily,projective,1,6704,confess,15,confess,C,NA,default,28,Yes,NA,Female,English,NA,11
1414,default,block1,julian,projective,0.13,9767,think,16,think,C,NA,default,28,Yes,NA,Female,English,NA,12
1414,default,block1,kids,projective,0.99,6307,MC,17,MC,MC,NA,default,28,Yes,NA,Female,English,NA,13
1414,default,block1,muffins,projective,0.98,4568,MC,18,MC,MC,NA,default,28,Yes,NA,Female,English,NA,14
1414,default,block1,tony,projective,1,8514,inform,19,inform,C,NA,default,28,Yes,NA,Female,English,NA,15
1414,default,block1,mia,projective,0.99,8507,demonstrate,20,demonstrate,C,NA,default,28,Yes,NA,Female,English,NA,16
1414,default,block1,jayden,projective,0.36,9658,confirm,21,confirm,C,NA,default,28,Yes,NA,Female,English,NA,17
1414,default,block1,sophia,projective,0.98,5206,announce,22,announce,C,NA,default,28,Yes,NA,Female,English,NA,18
1414,default,block1,frank,projective,0.99,6610,see,23,see,C,NA,default,28,Yes,NA,Female,English,NA,19
1414,default,block1,isabella,projective,0.5,6624,say,24,say,C,NA,default,28,Yes,NA,Female,English,NA,20
1414,default,block1,danny,projective,0.28,8023,suggest,25,suggest,C,NA,default,28,Yes,NA,Female,English,NA,21
1414,default,block1,mary,projective,0.01,7110,pretend,26,pretend,C,NA,default,28,Yes,NA,Female,English,NA,22
1414,default,block1,ballet,projective,0.97,15364,MC,27,MC,MC,NA,default,28,Yes,NA,Female,English,NA,23
1414,default,block1,olivia,projective,0.65,21470,admit,28,admit,C,NA,default,28,Yes,NA,Female,English,NA,24
1414,default,block1,jon,projective,0.99,36658,be_annoyed,29,be_annoyed,C,NA,default,28,Yes,NA,Female,English,NA,25
1414,default,block1,owen,projective,0.01,63006,prove,30,prove,C,NA,default,28,Yes,NA,Female,English,NA,26
1414,default,block2,garage,ai,0.030000000000000027,12791,MC,32,MC,MC,NA,default,28,Yes,NA,Female,English,NA,27
1414,default,block2,mary,ai,1,12582,pretend,33,pretend,C,NA,default,28,Yes,NA,Female,English,NA,28
1414,default,block2,muffins,ai,0.010000000000000009,8146,MC,34,MC,MC,NA,default,28,Yes,NA,Female,English,NA,29
1414,default,block2,isabella,ai,0.99,8529,say,35,say,C,NA,default,28,Yes,NA,Female,English,NA,30
1414,default,block2,tony,ai,0.99,7066,inform,36,inform,C,NA,default,28,Yes,NA,Female,English,NA,31
1414,default,block2,josh,ai,0.99,8304,hear,37,hear,C,NA,default,28,Yes,NA,Female,English,NA,32
1414,default,block2,olivia,ai,0.98,7304,admit,38,admit,C,NA,default,28,Yes,NA,Female,English,NA,33
1414,default,block2,zoe,ai,0.97,9962,establish,39,establish,C,NA,default,28,Yes,NA,Female,English,NA,34
1414,default,block2,sophia,ai,0.99,9991,announce,40,announce,C,NA,default,28,Yes,NA,Female,English,NA,35
1414,default,block2,grace,ai,0.98,11882,acknowledge,41,acknowledge,C,NA,default,28,Yes,NA,Female,English,NA,36
1414,default,block2,hat,ai,0.010000000000000009,6782,MC,42,MC,MC,NA,default,28,Yes,NA,Female,English,NA,37
1414,default,block2,pizza,ai,0.020000000000000018,4735,MC,43,MC,MC,NA,default,28,Yes,NA,Female,English,NA,38
1414,default,block2,jackson,ai,0.99,5813,discover,44,discover,C,NA,default,28,Yes,NA,Female,English,NA,39
1414,default,block2,charley,ai,0.030000000000000027,6691,reveal,45,reveal,C,NA,default,28,Yes,NA,Female,English,NA,40
1414,default,block2,josie,ai,0.99,7384,be_right,46,be_right,C,NA,default,28,Yes,NA,Female,English,NA,41
1414,default,block2,emily,ai,0.030000000000000027,5929,confess,47,confess,C,NA,default,28,Yes,NA,Female,English,NA,42
1414,default,block2,mia,ai,1,4496,demonstrate,48,demonstrate,C,NA,default,28,Yes,NA,Female,English,NA,43
1414,default,block2,jon,ai,1,3982,be_annoyed,49,be_annoyed,C,NA,default,28,Yes,NA,Female,English,NA,44
1414,default,block2,danny,ai,0.99,6357,suggest,50,suggest,C,NA,default,28,Yes,NA,Female,English,NA,45
1414,default,block2,emma,ai,0.98,43918,know,51,know,C,NA,default,28,Yes,NA,Female,English,NA,46
1414,default,block2,ballet,ai,0.06000000000000005,12344,MC,52,MC,MC,NA,default,28,Yes,NA,Female,English,NA,47
1414,default,block2,kids,ai,0.020000000000000018,53692,MC,53,MC,MC,NA,default,28,Yes,NA,Female,English,NA,48
1414,default,block2,owen,ai,0.98,12865,prove,54,prove,C,NA,default,28,Yes,NA,Female,English,NA,49
1414,default,block2,frank,ai,0.030000000000000027,42564,see,55,see,C,NA,default,28,Yes,NA,Female,English,NA,50
1414,default,block2,julian,ai,0.99,23958,think,56,think,C,NA,default,28,Yes,NA,Female,English,NA,51
1414,default,block2,jayden,ai,0.98,59749,confirm,57,confirm,C,NA,default,28,Yes,NA,Female,English,NA,52
1342,default,block1,emily,ai,0.4,21916,confirm,5,confirm,C,NA,default,25,Yes,NA,Female,English,NA,1
1342,default,block1,mary,ai,0.48,98105,be_annoyed,6,be_annoyed,C,NA,default,25,Yes,NA,Female,English,NA,2
1342,default,block1,josh,ai,0.52,29312,say,7,say,C,NA,default,25,Yes,NA,Female,English,NA,3
1342,default,block1,ballet,ai,0,48791,MC,8,MC,MC,NA,default,25,Yes,NA,Female,English,NA,4
1342,default,block1,jon,ai,0.43000000000000005,7866,admit,9,admit,C,NA,default,25,Yes,NA,Female,English,NA,5
1342,default,block1,hat,ai,0,191064,MC,10,MC,MC,NA,default,25,Yes,NA,Female,English,NA,6
1342,default,block1,muffins,ai,0,7482,MC,11,MC,MC,NA,default,25,Yes,NA,Female,English,NA,7
1342,default,block1,isabella,ai,0.47,29878,suggest,12,suggest,C,NA,default,25,Yes,NA,Female,English,NA,8
1342,default,block1,owen,ai,0.42000000000000004,15561,announce,13,announce,C,NA,default,25,Yes,NA,Female,English,NA,9
1342,default,block1,sophia,ai,0.51,6858,prove,14,prove,C,NA,default,25,Yes,NA,Female,English,NA,10
1342,default,block1,grace,ai,0.53,141612,see,15,see,C,NA,default,25,Yes,NA,Female,English,NA,11
1342,default,block1,tony,ai,0.49,64714,know,16,know,C,NA,default,25,Yes,NA,Female,English,NA,12
1342,default,block1,zoe,ai,0.51,86187,acknowledge,17,acknowledge,C,NA,default,25,Yes,NA,Female,English,NA,13
1342,default,block1,danny,ai,0.53,25741,pretend,18,pretend,C,NA,default,25,Yes,NA,Female,English,NA,14
1342,default,block1,emma,ai,0.53,7789,think,19,think,C,NA,default,25,Yes,NA,Female,English,NA,15
1342,default,block1,julian,ai,0.52,71904,reveal,20,reveal,C,NA,default,25,Yes,NA,Female,English,NA,16
1342,default,block1,garage,ai,0.4,41942,MC,21,MC,MC,NA,default,25,Yes,NA,Female,English,NA,17
1342,default,block1,charley,ai,0.6799999999999999,7844,inform,22,inform,C,NA,default,25,Yes,NA,Female,English,NA,18
1342,default,block1,pizza,ai,0.30000000000000004,10408,MC,23,MC,MC,NA,default,25,Yes,NA,Female,English,NA,19
1342,default,block1,jackson,ai,0.63,16385,confess,24,confess,C,NA,default,25,Yes,NA,Female,English,NA,20
1342,default,block1,frank,ai,0.77,7727,demonstrate,25,demonstrate,C,NA,default,25,Yes,NA,Female,English,NA,21
1342,default,block1,josie,ai,0.8,8873,establish,26,establish,C,NA,default,25,Yes,NA,Female,English,NA,22
1342,default,block1,olivia,ai,0.8200000000000001,5843,discover,27,discover,C,NA,default,25,Yes,NA,Female,English,NA,23
1342,default,block1,mia,ai,0.83,17987,be_right,28,be_right,C,NA,default,25,Yes,NA,Female,English,NA,24
1342,default,block1,kids,ai,0.15000000000000002,51117,MC,29,MC,MC,NA,default,25,Yes,NA,Female,English,NA,25
1342,default,block1,jayden,ai,0.88,7111,hear,30,hear,C,NA,default,25,Yes,NA,Female,English,NA,26
1342,default,block2,olivia,projective,0.81,8436,discover,32,discover,C,NA,default,25,Yes,NA,Female,English,NA,27
1342,default,block2,mia,projective,0.17,26362,be_right,33,be_right,C,NA,default,25,Yes,NA,Female,English,NA,28
1342,default,block2,zoe,projective,0.75,6306,acknowledge,34,acknowledge,C,NA,default,25,Yes,NA,Female,English,NA,29
1342,default,block2,kids,projective,0.75,6785,MC,35,MC,MC,NA,default,25,Yes,NA,Female,English,NA,30
1342,default,block2,danny,projective,0.28,17023,pretend,36,pretend,C,NA,default,25,Yes,NA,Female,English,NA,31
1342,default,block2,sophia,projective,0.14,39366,prove,37,prove,C,NA,default,25,Yes,NA,Female,English,NA,32
1342,default,block2,muffins,projective,0.9,22011,MC,38,MC,MC,NA,default,25,Yes,NA,Female,English,NA,33
1342,default,block2,tony,projective,0.75,5990,know,39,know,C,NA,default,25,Yes,NA,Female,English,NA,34
1342,default,block2,isabella,projective,0.36,6836,suggest,40,suggest,C,NA,default,25,Yes,NA,Female,English,NA,35
1342,default,block2,pizza,projective,0.77,3905,MC,41,MC,MC,NA,default,25,Yes,NA,Female,English,NA,36
1342,default,block2,jackson,projective,0.71,5399,confess,42,confess,C,NA,default,25,Yes,NA,Female,English,NA,37
1342,default,block2,josh,projective,0.34,101643,say,43,say,C,NA,default,25,Yes,NA,Female,English,NA,38
1342,default,block2,josie,projective,0.33,127928,establish,44,establish,C,NA,default,25,Yes,NA,Female,English,NA,39
1342,default,block2,emma,projective,0.25,5111,think,45,think,C,NA,default,25,Yes,NA,Female,English,NA,40
1342,default,block2,charley,projective,0.59,11669,inform,46,inform,C,NA,default,25,Yes,NA,Female,English,NA,41
1342,default,block2,hat,projective,0.76,5939,MC,47,MC,MC,NA,default,25,Yes,NA,Female,English,NA,42
1342,default,block2,frank,projective,0.33,97159,demonstrate,48,demonstrate,C,NA,default,25,Yes,NA,Female,English,NA,43
1342,default,block2,garage,projective,0.83,166097,MC,49,MC,MC,NA,default,25,Yes,NA,Female,English,NA,44
1342,default,block2,owen,projective,0.69,11376,announce,50,announce,C,NA,default,25,Yes,NA,Female,English,NA,45
1342,default,block2,jayden,projective,0.7,8858,hear,51,hear,C,NA,default,25,Yes,NA,Female,English,NA,46
1342,default,block2,emily,projective,0.23,4017,confirm,52,confirm,C,NA,default,25,Yes,NA,Female,English,NA,47
1342,default,block2,jon,projective,0.49,4117,admit,53,admit,C,NA,default,25,Yes,NA,Female,English,NA,48
1342,default,block2,grace,projective,0.73,11512,see,54,see,C,NA,default,25,Yes,NA,Female,English,NA,49
1342,default,block2,mary,projective,0.74,15553,be_annoyed,55,be_annoyed,C,NA,default,25,Yes,NA,Female,English,NA,50
1342,default,block2,ballet,projective,0.75,5211,MC,56,MC,MC,NA,default,25,Yes,NA,Female,English,NA,51
1342,default,block2,julian,projective,0.74,3550,reveal,57,reveal,C,NA,default,25,Yes,NA,Female,English,NA,52
1166,default,block1,emily,ai,0.97,40472,admit,5,admit,C,NA,default,21,Yes,"No, Thank you",Female,English,NA,1
1166,default,block1,jackson,ai,1,15822,reveal,6,reveal,C,NA,default,21,Yes,"No, Thank you",Female,English,NA,2
1166,default,block1,pizza,ai,0.030000000000000027,7086,MC,7,MC,MC,NA,default,21,Yes,"No, Thank you",Female,English,NA,3
1166,default,block1,olivia,ai,0.97,7068,acknowledge,8,acknowledge,C,NA,default,21,Yes,"No, Thank you",Female,English,NA,4
1166,default,block1,jayden,ai,0.99,8116,be_annoyed,9,be_annoyed,C,NA,default,21,Yes,"No, Thank you",Female,English,NA,5
1166,default,block1,josie,ai,0.98,10093,confirm,10,confirm,C,NA,default,21,Yes,"No, Thank you",Female,English,NA,6
1166,default,block1,zoe,ai,0.98,17277,think,11,think,C,NA,default,21,Yes,"No, Thank you",Female,English,NA,7
1166,default,block1,ballet,ai,0.010000000000000009,7621,MC,12,MC,MC,NA,default,21,Yes,"No, Thank you",Female,English,NA,8
1166,default,block1,danny,ai,0.97,7121,demonstrate,13,demonstrate,C,NA,default,21,Yes,"No, Thank you",Female,English,NA,9
1166,default,block1,owen,ai,0.97,7001,suggest,14,suggest,C,NA,default,21,Yes,"No, Thank you",Female,English,NA,10
1166,default,block1,hat,ai,0.040000000000000036,5270,MC,15,MC,MC,NA,default,21,Yes,"No, Thank you",Female,English,NA,11
1166,default,block1,kids,ai,0.030000000000000027,6234,MC,16,MC,MC,NA,default,21,Yes,"No, Thank you",Female,English,NA,12
1166,default,block1,jon,ai,0.98,5573,hear,17,hear,C,NA,default,21,Yes,"No, Thank you",Female,English,NA,13
1166,default,block1,julian,ai,0.97,7337,be_right,18,be_right,C,NA,default,21,Yes,"No, Thank you",Female,English,NA,14
1166,default,block1,muffins,ai,0.020000000000000018,5221,MC,19,MC,MC,NA,default,21,Yes,"No, Thank you",Female,English,NA,15
1166,default,block1,isabella,ai,0.98,6645,inform,20,inform,C,NA,default,21,Yes,"No, Thank you",Female,English,NA,16
1166,default,block1,sophia,ai,0.96,5815,know,21,know,C,NA,default,21,Yes,"No, Thank you",Female,English,NA,17
1166,default,block1,emma,ai,0.99,6972,discover,22,discover,C,NA,default,21,Yes,"No, Thank you",Female,English,NA,18
1166,default,block1,garage,ai,0.020000000000000018,4857,MC,23,MC,MC,NA,default,21,Yes,"No, Thank you",Female,English,NA,19
1166,default,block1,grace,ai,0.96,5559,confess,24,confess,C,NA,default,21,Yes,"No, Thank you",Female,English,NA,20
1166,default,block1,tony,ai,1,5623,announce,25,announce,C,NA,default,21,Yes,"No, Thank you",Female,English,NA,21
1166,default,block1,mia,ai,0.99,9769,say,26,say,C,NA,default,21,Yes,"No, Thank you",Female,English,NA,22
1166,default,block1,charley,ai,0.99,5256,prove,27,prove,C,NA,default,21,Yes,"No, Thank you",Female,English,NA,23
1166,default,block1,josh,ai,0.97,6592,see,28,see,C,NA,default,21,Yes,"No, Thank you",Female,English,NA,24
1166,default,block1,mary,ai,0.99,5912,pretend,29,pretend,C,NA,default,21,Yes,"No, Thank you",Female,English,NA,25
1166,default,block1,frank,ai,0.99,7150,establish,30,establish,C,NA,default,21,Yes,"No, Thank you",Female,English,NA,26
1166,default,block2,zoe,projective,0.01,7657,think,32,think,C,NA,default,21,Yes,"No, Thank you",Female,English,NA,27
1166,default,block2,emma,projective,0.98,13644,discover,33,discover,C,NA,default,21,Yes,"No, Thank you",Female,English,NA,28
1166,default,block2,kids,projective,0.99,4915,MC,34,MC,MC,NA,default,21,Yes,"No, Thank you",Female,English,NA,29
1166,default,block2,charley,projective,0.02,7099,prove,35,prove,C,NA,default,21,Yes,"No, Thank you",Female,English,NA,30
1166,default,block2,ballet,projective,0.99,4287,MC,36,MC,MC,NA,default,21,Yes,"No, Thank you",Female,English,NA,31
1166,default,block2,owen,projective,0.03,6125,suggest,37,suggest,C,NA,default,21,Yes,"No, Thank you",Female,English,NA,32
1166,default,block2,emily,projective,0.99,4335,admit,38,admit,C,NA,default,21,Yes,"No, Thank you",Female,English,NA,33
1166,default,block2,muffins,projective,0.97,2789,MC,39,MC,MC,NA,default,21,Yes,"No, Thank you",Female,English,NA,34
1166,default,block2,josh,projective,0.96,4543,see,40,see,C,NA,default,21,Yes,"No, Thank you",Female,English,NA,35
1166,default,block2,pizza,projective,0.98,3280,MC,41,MC,MC,NA,default,21,Yes,"No, Thank you",Female,English,NA,36
1166,default,block2,frank,projective,0.97,5594,establish,42,establish,C,NA,default,21,Yes,"No, Thank you",Female,English,NA,37
1166,default,block2,sophia,projective,0.96,5326,know,43,know,C,NA,default,21,Yes,"No, Thank you",Female,English,NA,38
1166,default,block2,olivia,projective,0.99,5613,acknowledge,44,acknowledge,C,NA,default,21,Yes,"No, Thank you",Female,English,NA,39
1166,default,block2,hat,projective,1,2772,MC,45,MC,MC,NA,default,21,Yes,"No, Thank you",Female,English,NA,40
1166,default,block2,isabella,projective,0.95,5882,inform,46,inform,C,NA,default,21,Yes,"No, Thank you",Female,English,NA,41
1166,default,block2,josie,projective,0.99,3438,confirm,47,confirm,C,NA,default,21,Yes,"No, Thank you",Female,English,NA,42
1166,default,block2,grace,projective,0.96,2878,confess,48,confess,C,NA,default,21,Yes,"No, Thank you",Female,English,NA,43
1166,default,block2,tony,projective,0.95,5290,announce,49,announce,C,NA,default,21,Yes,"No, Thank you",Female,English,NA,44
1166,default,block2,julian,projective,0.04,4907,be_right,50,be_right,C,NA,default,21,Yes,"No, Thank you",Female,English,NA,45
1166,default,block2,jon,projective,0.99,9082,hear,51,hear,C,NA,default,21,Yes,"No, Thank you",Female,English,NA,46
1166,default,block2,garage,projective,0.95,3624,MC,52,MC,MC,NA,default,21,Yes,"No, Thank you",Female,English,NA,47
1166,default,block2,danny,projective,0.04,8195,demonstrate,53,demonstrate,C,NA,default,21,Yes,"No, Thank you",Female,English,NA,48
1166,default,block2,jayden,projective,0.01,7451,be_annoyed,54,be_annoyed,C,NA,default,21,Yes,"No, Thank you",Female,English,NA,49
1166,default,block2,mia,projective,0.03,3760,say,55,say,C,NA,default,21,Yes,"No, Thank you",Female,English,NA,50
1166,default,block2,mary,projective,0.06,5052,pretend,56,pretend,C,NA,default,21,Yes,"No, Thank you",Female,English,NA,51
1166,default,block2,jackson,projective,0.98,4508,reveal,57,reveal,C,NA,default,21,Yes,"No, Thank you",Female,English,NA,52
1371,default,block1,danny,projective,0.01,8739,pretend,5,pretend,C,NA,default,19,Yes,NA,Female,English,NA,1
1371,default,block1,grace,projective,0.01,11875,demonstrate,6,demonstrate,C,NA,default,19,Yes,NA,Female,English,NA,2
1371,default,block1,jackson,projective,0.02,11328,establish,7,establish,C,NA,default,19,Yes,NA,Female,English,NA,3
1371,default,block1,emily,projective,0.28,11528,prove,8,prove,C,NA,default,19,Yes,NA,Female,English,NA,4
1371,default,block1,hat,projective,0.97,5043,MC,9,MC,MC,NA,default,19,Yes,NA,Female,English,NA,5
1371,default,block1,sophia,projective,0.79,10410,hear,10,hear,C,NA,default,19,Yes,NA,Female,English,NA,6
1371,default,block1,tony,projective,0.88,7663,be_annoyed,11,be_annoyed,C,NA,default,19,Yes,NA,Female,English,NA,7
1371,default,block1,jayden,projective,0.67,14449,suggest,12,suggest,C,NA,default,19,Yes,NA,Female,English,NA,8
1371,default,block1,josie,projective,0.96,9147,admit,13,admit,C,NA,default,19,Yes,NA,Female,English,NA,9
1371,default,block1,muffins,projective,0.98,5070,MC,14,MC,MC,NA,default,19,Yes,NA,Female,English,NA,10
1371,default,block1,mary,projective,0.99,5406,confess,15,confess,C,NA,default,19,Yes,NA,Female,English,NA,11
1371,default,block1,charley,projective,0.17,11376,think,16,think,C,NA,default,19,Yes,NA,Female,English,NA,12
1371,default,block1,isabella,projective,0.22,7166,announce,17,announce,C,NA,default,19,Yes,NA,Female,English,NA,13
1371,default,block1,josh,projective,0.18,11460,confirm,18,confirm,C,NA,default,19,Yes,NA,Female,English,NA,14
1371,default,block1,frank,projective,0.13,11762,say,19,say,C,NA,default,19,Yes,NA,Female,English,NA,15
1371,default,block1,ballet,projective,0.98,4309,MC,20,MC,MC,NA,default,19,Yes,NA,Female,English,NA,16
1371,default,block1,kids,projective,0.97,4295,MC,21,MC,MC,NA,default,19,Yes,NA,Female,English,NA,17
1371,default,block1,jon,projective,0.97,8291,know,22,know,C,NA,default,19,Yes,NA,Female,English,NA,18
1371,default,block1,zoe,projective,0.8,9349,inform,23,inform,C,NA,default,19,Yes,NA,Female,English,NA,19
1371,default,block1,garage,projective,0.97,4794,MC,24,MC,MC,NA,default,19,Yes,NA,Female,English,NA,20
1371,default,block1,owen,projective,0.79,9731,discover,25,discover,C,NA,default,19,Yes,NA,Female,English,NA,21
1371,default,block1,pizza,projective,0.98,4609,MC,26,MC,MC,NA,default,19,Yes,NA,Female,English,NA,22
1371,default,block1,julian,projective,0.02,9385,be_right,27,be_right,C,NA,default,19,Yes,NA,Female,English,NA,23
1371,default,block1,mia,projective,0.95,10962,see,28,see,C,NA,default,19,Yes,NA,Female,English,NA,24
1371,default,block1,olivia,projective,0.91,7493,reveal,29,reveal,C,NA,default,19,Yes,NA,Female,English,NA,25
1371,default,block1,emma,projective,0.79,8422,acknowledge,30,acknowledge,C,NA,default,19,Yes,NA,Female,English,NA,26
1371,default,block2,jon,ai,0.97,11786,know,32,know,C,NA,default,19,Yes,NA,Female,English,NA,27
1371,default,block2,jackson,ai,0.98,6811,establish,33,establish,C,NA,default,19,Yes,NA,Female,English,NA,28
1371,default,block2,muffins,ai,0.030000000000000027,5011,MC,34,MC,MC,NA,default,19,Yes,NA,Female,English,NA,29
1371,default,block2,isabella,ai,0.96,7859,announce,35,announce,C,NA,default,19,Yes,NA,Female,English,NA,30
1371,default,block2,emily,ai,0.97,7687,prove,36,prove,C,NA,default,19,Yes,NA,Female,English,NA,31
1371,default,block2,olivia,ai,0.95,6427,reveal,37,reveal,C,NA,default,19,Yes,NA,Female,English,NA,32
1371,default,block2,josh,ai,0.97,5857,confirm,38,confirm,C,NA,default,19,Yes,NA,Female,English,NA,33
1371,default,block2,kids,ai,0.030000000000000027,4001,MC,39,MC,MC,NA,default,19,Yes,NA,Female,English,NA,34
1371,default,block2,hat,ai,0.030000000000000027,5124,MC,40,MC,MC,NA,default,19,Yes,NA,Female,English,NA,35
1371,default,block2,sophia,ai,0.97,5903,hear,41,hear,C,NA,default,19,Yes,NA,Female,English,NA,36
1371,default,block2,owen,ai,0.97,5353,discover,42,discover,C,NA,default,19,Yes,NA,Female,English,NA,37
1371,default,block2,danny,ai,0.96,9010,pretend,43,pretend,C,NA,default,19,Yes,NA,Female,English,NA,38
1371,default,block2,ballet,ai,0.040000000000000036,4258,MC,44,MC,MC,NA,default,19,Yes,NA,Female,English,NA,39
1371,default,block2,julian,ai,0.95,4487,be_right,45,be_right,C,NA,default,19,Yes,NA,Female,English,NA,40
1371,default,block2,frank,ai,0.97,4997,say,46,say,C,NA,default,19,Yes,NA,Female,English,NA,41
1371,default,block2,garage,ai,0.040000000000000036,5569,MC,47,MC,MC,NA,default,19,Yes,NA,Female,English,NA,42
1371,default,block2,jayden,ai,0.96,5537,suggest,48,suggest,C,NA,default,19,Yes,NA,Female,English,NA,43
1371,default,block2,emma,ai,0.96,6759,acknowledge,49,acknowledge,C,NA,default,19,Yes,NA,Female,English,NA,44
1371,default,block2,mary,ai,0.96,3996,confess,50,confess,C,NA,default,19,Yes,NA,Female,English,NA,45
1371,default,block2,mia,ai,0.94,4982,see,51,see,C,NA,default,19,Yes,NA,Female,English,NA,46
1371,default,block2,tony,ai,0.96,9374,be_annoyed,52,be_annoyed,C,NA,default,19,Yes,NA,Female,English,NA,47
1371,default,block2,pizza,ai,0.050000000000000044,3762,MC,53,MC,MC,NA,default,19,Yes,NA,Female,English,NA,48
1371,default,block2,zoe,ai,0.97,4102,inform,54,inform,C,NA,default,19,Yes,NA,Female,English,NA,49
1371,default,block2,charley,ai,0.98,3898,think,55,think,C,NA,default,19,Yes,NA,Female,English,NA,50
1371,default,block2,grace,ai,0.95,6607,demonstrate,56,demonstrate,C,NA,default,19,Yes,NA,Female,English,NA,51
1371,default,block2,josie,ai,0.97,8379,admit,57,admit,C,NA,default,19,Yes,NA,Female,English,NA,52
1442,default,block1,josie,projective,0.97,24841,demonstrate,5,demonstrate,C,NA,default,25,Yes,NA,Female,English,NA,1
1442,default,block1,danny,projective,0.98,7683,be_annoyed,6,be_annoyed,C,NA,default,25,Yes,NA,Female,English,NA,2
1442,default,block1,emily,projective,0.96,7904,confess,7,confess,C,NA,default,25,Yes,NA,Female,English,NA,3
1442,default,block1,zoe,projective,0.97,10372,prove,8,prove,C,NA,default,25,Yes,NA,Female,English,NA,4
1442,default,block1,tony,projective,0.98,7632,inform,9,inform,C,NA,default,25,Yes,NA,Female,English,NA,5
1442,default,block1,emma,projective,0.96,5882,reveal,10,reveal,C,NA,default,25,Yes,NA,Female,English,NA,6
1442,default,block1,jackson,projective,0.03,7497,say,11,say,C,NA,default,25,Yes,NA,Female,English,NA,7
1442,default,block1,olivia,projective,0.98,5731,discover,12,discover,C,NA,default,25,Yes,NA,Female,English,NA,8
1442,default,block1,frank,projective,0.96,4428,announce,13,announce,C,NA,default,25,Yes,NA,Female,English,NA,9
1442,default,block1,garage,projective,0.96,12121,MC,14,MC,MC,NA,default,25,Yes,NA,Female,English,NA,10
1442,default,block1,hat,projective,0.96,5731,MC,15,MC,MC,NA,default,25,Yes,NA,Female,English,NA,11
1442,default,block1,mary,projective,0.96,6685,hear,16,hear,C,NA,default,25,Yes,NA,Female,English,NA,12
1442,default,block1,ballet,projective,0.96,6087,MC,17,MC,MC,NA,default,25,Yes,NA,Female,English,NA,13
1442,default,block1,julian,projective,0.1,13465,confirm,18,confirm,C,NA,default,25,Yes,NA,Female,English,NA,14
1442,default,block1,muffins,projective,0.99,121890,MC,19,MC,MC,NA,default,25,Yes,NA,Female,English,NA,15
1442,default,block1,charley,projective,0.73,5379,know,20,know,C,NA,default,25,Yes,NA,Female,English,NA,16
1442,default,block1,grace,projective,0.46,6060,establish,21,establish,C,NA,default,25,Yes,NA,Female,English,NA,17
1442,default,block1,jon,projective,0.16,5515,suggest,22,suggest,C,NA,default,25,Yes,NA,Female,English,NA,18
1442,default,block1,jayden,projective,0.87,5688,admit,23,admit,C,NA,default,25,Yes,NA,Female,English,NA,19
1442,default,block1,isabella,projective,0.72,23998,acknowledge,24,acknowledge,C,NA,default,25,Yes,NA,Female,English,NA,20
1442,default,block1,pizza,projective,0.98,5484,MC,25,MC,MC,NA,default,25,Yes,NA,Female,English,NA,21
1442,default,block1,josh,projective,0.07,13117,pretend,26,pretend,C,NA,default,25,Yes,NA,Female,English,NA,22
1442,default,block1,kids,projective,0.95,5721,MC,27,MC,MC,NA,default,25,Yes,NA,Female,English,NA,23
1442,default,block1,owen,projective,0.71,7613,be_right,28,be_right,C,NA,default,25,Yes,NA,Female,English,NA,24
1442,default,block1,sophia,projective,0.86,4767,see,29,see,C,NA,default,25,Yes,NA,Female,English,NA,25
1442,default,block1,mia,projective,0.29,9401,think,30,think,C,NA,default,25,Yes,NA,Female,English,NA,26
1442,default,block2,zoe,ai,0.73,27488,prove,32,prove,C,NA,default,25,Yes,NA,Female,English,NA,27
1442,default,block2,josh,ai,0.78,86792,pretend,33,pretend,C,NA,default,25,Yes,NA,Female,English,NA,28
1442,default,block2,julian,ai,0.79,22983,confirm,34,confirm,C,NA,default,25,Yes,NA,Female,English,NA,29
1442,default,block2,jackson,ai,0.6599999999999999,11518,say,35,say,C,NA,default,25,Yes,NA,Female,English,NA,30
1442,default,block2,sophia,ai,0.49,4337,see,36,see,C,NA,default,25,Yes,NA,Female,English,NA,31
1442,default,block2,emily,ai,0.77,5815,confess,37,confess,C,NA,default,25,Yes,NA,Female,English,NA,32
1442,default,block2,muffins,ai,0.050000000000000044,4616,MC,38,MC,MC,NA,default,25,Yes,NA,Female,English,NA,33
1442,default,block2,isabella,ai,0.79,8883,acknowledge,39,acknowledge,C,NA,default,25,Yes,NA,Female,English,NA,34
1442,default,block2,charley,ai,0.8,6008,know,40,know,C,NA,default,25,Yes,NA,Female,English,NA,35
1442,default,block2,grace,ai,0.78,4176,establish,41,establish,C,NA,default,25,Yes,NA,Female,English,NA,36
1442,default,block2,mary,ai,0.84,7587,hear,42,hear,C,NA,default,25,Yes,NA,Female,English,NA,37
1442,default,block2,pizza,ai,0,4211,MC,43,MC,MC,NA,default,25,Yes,NA,Female,English,NA,38
1442,default,block2,danny,ai,0.86,6486,be_annoyed,44,be_annoyed,C,NA,default,25,Yes,NA,Female,English,NA,39
1442,default,block2,jayden,ai,0.79,9255,admit,45,admit,C,NA,default,25,Yes,NA,Female,English,NA,40
1442,default,block2,kids,ai,0.010000000000000009,3688,MC,46,MC,MC,NA,default,25,Yes,NA,Female,English,NA,41
1442,default,block2,josie,ai,0.54,7197,demonstrate,47,demonstrate,C,NA,default,25,Yes,NA,Female,English,NA,42
1442,default,block2,hat,ai,0.030000000000000027,3581,MC,48,MC,MC,NA,default,25,Yes,NA,Female,English,NA,43
1442,default,block2,owen,ai,0.81,7437,be_right,49,be_right,C,NA,default,25,Yes,NA,Female,English,NA,44
1442,default,block2,frank,ai,0.84,5902,announce,50,announce,C,NA,default,25,Yes,NA,Female,English,NA,45
1442,default,block2,mia,ai,0.73,6389,think,51,think,C,NA,default,25,Yes,NA,Female,English,NA,46
1442,default,block2,ballet,ai,0.010000000000000009,3859,MC,52,MC,MC,NA,default,25,Yes,NA,Female,English,NA,47
1442,default,block2,tony,ai,0.71,9982,inform,53,inform,C,NA,default,25,Yes,NA,Female,English,NA,48
1442,default,block2,olivia,ai,0.74,27600,discover,54,discover,C,NA,default,25,Yes,NA,Female,English,NA,49
1442,default,block2,emma,ai,0.69,10069,reveal,55,reveal,C,NA,default,25,Yes,NA,Female,English,NA,50
1442,default,block2,garage,ai,0.030000000000000027,3687,MC,56,MC,MC,NA,default,25,Yes,NA,Female,English,NA,51
1442,default,block2,jon,ai,0.79,5781,suggest,57,suggest,C,NA,default,25,Yes,NA,Female,English,NA,52
1227,default,block1,zoe,projective,0.8,29471,confess,5,confess,C,NA,default,23,Yes,NA,Female,english,NA,1
1227,default,block1,sophia,projective,0.01,36362,say,6,say,C,NA,default,23,Yes,NA,Female,english,NA,2
1227,default,block1,kids,projective,0.98,12478,MC,7,MC,MC,NA,default,23,Yes,NA,Female,english,NA,3
1227,default,block1,pizza,projective,0.98,10478,MC,8,MC,MC,NA,default,23,Yes,NA,Female,english,NA,4
1227,default,block1,ballet,projective,0.97,12098,MC,9,MC,MC,NA,default,23,Yes,NA,Female,english,NA,5
1227,default,block1,jayden,projective,0.55,16212,know,10,know,C,NA,default,23,Yes,NA,Female,english,NA,6
1227,default,block1,frank,projective,0,44519,pretend,11,pretend,C,NA,default,23,Yes,NA,Female,english,NA,7
1227,default,block1,josie,projective,0.96,17998,be_annoyed,12,be_annoyed,C,NA,default,23,Yes,NA,Female,english,NA,8
1227,default,block1,garage,projective,0.97,10823,MC,13,MC,MC,NA,default,23,Yes,NA,Female,english,NA,9
1227,default,block1,josh,projective,0.98,88065,hear,14,hear,C,NA,default,23,Yes,NA,Female,english,NA,10
1227,default,block1,emily,projective,0.68,13972,reveal,15,reveal,C,NA,default,23,Yes,NA,Female,english,NA,11
1227,default,block1,isabella,projective,0.47,14693,confirm,16,confirm,C,NA,default,23,Yes,NA,Female,english,NA,12
1227,default,block1,grace,projective,0.16,15692,establish,17,establish,C,NA,default,23,Yes,NA,Female,english,NA,13
1227,default,block1,muffins,projective,0.98,6611,MC,18,MC,MC,NA,default,23,Yes,NA,Female,english,NA,14
1227,default,block1,olivia,projective,0.78,19226,inform,19,inform,C,NA,default,23,Yes,NA,Female,english,NA,15
1227,default,block1,jackson,projective,0.02,11521,admit,20,admit,C,NA,default,23,Yes,NA,Female,english,NA,16
1227,default,block1,emma,projective,0.46,26115,discover,21,discover,C,NA,default,23,Yes,NA,Female,english,NA,17
1227,default,block1,julian,projective,0.37,16194,demonstrate,22,demonstrate,C,NA,default,23,Yes,NA,Female,english,NA,18
1227,default,block1,owen,projective,0.2,10378,suggest,23,suggest,C,NA,default,23,Yes,NA,Female,english,NA,19
1227,default,block1,charley,projective,0.17,5330,prove,24,prove,C,NA,default,23,Yes,NA,Female,english,NA,20
1227,default,block1,mia,projective,0.49,9929,acknowledge,25,acknowledge,C,NA,default,23,Yes,NA,Female,english,NA,21
1227,default,block1,mary,projective,0.02,5003,be_right,26,be_right,C,NA,default,23,Yes,NA,Female,english,NA,22
1227,default,block1,tony,projective,0.02,7006,think,27,think,C,NA,default,23,Yes,NA,Female,english,NA,23
1227,default,block1,jon,projective,0.97,10813,see,28,see,C,NA,default,23,Yes,NA,Female,english,NA,24
1227,default,block1,hat,projective,0.98,3464,MC,29,MC,MC,NA,default,23,Yes,NA,Female,english,NA,25
1227,default,block1,danny,projective,0.78,12850,announce,30,announce,C,NA,default,23,Yes,NA,Female,english,NA,26
1227,default,block2,pizza,ai,0.010000000000000009,13608,MC,32,MC,MC,NA,default,23,Yes,NA,Female,english,NA,27
1227,default,block2,kids,ai,0.020000000000000018,9126,MC,33,MC,MC,NA,default,23,Yes,NA,Female,english,NA,28
1227,default,block2,grace,ai,0.98,7454,establish,34,establish,C,NA,default,23,Yes,NA,Female,english,NA,29
1227,default,block2,garage,ai,0.010000000000000009,8066,MC,35,MC,MC,NA,default,23,Yes,NA,Female,english,NA,30
1227,default,block2,sophia,ai,0.98,8183,say,36,say,C,NA,default,23,Yes,NA,Female,english,NA,31
1227,default,block2,mia,ai,0.96,7575,acknowledge,37,acknowledge,C,NA,default,23,Yes,NA,Female,english,NA,32
1227,default,block2,emma,ai,0.73,15308,discover,38,discover,C,NA,default,23,Yes,NA,Female,english,NA,33
1227,default,block2,owen,ai,0.94,9497,suggest,39,suggest,C,NA,default,23,Yes,NA,Female,english,NA,34
1227,default,block2,julian,ai,0.97,6533,demonstrate,40,demonstrate,C,NA,default,23,Yes,NA,Female,english,NA,35
1227,default,block2,josh,ai,0.99,4985,hear,41,hear,C,NA,default,23,Yes,NA,Female,english,NA,36
1227,default,block2,tony,ai,0.010000000000000009,13664,think,42,think,C,NA,default,23,Yes,NA,Female,english,NA,37
1227,default,block2,frank,ai,0.020000000000000018,13183,pretend,43,pretend,C,NA,default,23,Yes,NA,Female,english,NA,38
1227,default,block2,josie,ai,0.020000000000000018,15906,be_annoyed,44,be_annoyed,C,NA,default,23,Yes,NA,Female,english,NA,39
1227,default,block2,jayden,ai,0.88,8581,know,45,know,C,NA,default,23,Yes,NA,Female,english,NA,40
1227,default,block2,hat,ai,0,4876,MC,46,MC,MC,NA,default,23,Yes,NA,Female,english,NA,41
1227,default,block2,mary,ai,0.54,14091,be_right,47,be_right,C,NA,default,23,Yes,NA,Female,english,NA,42
1227,default,block2,ballet,ai,0.010000000000000009,10573,MC,48,MC,MC,NA,default,23,Yes,NA,Female,english,NA,43
1227,default,block2,jackson,ai,0.06999999999999995,28338,admit,49,admit,C,NA,default,23,Yes,NA,Female,english,NA,44
1227,default,block2,emily,ai,0.050000000000000044,9813,reveal,50,reveal,C,NA,default,23,Yes,NA,Female,english,NA,45
1227,default,block2,danny,ai,0.020000000000000018,10159,announce,51,announce,C,NA,default,23,Yes,NA,Female,english,NA,46
1227,default,block2,jon,ai,0.69,11421,see,52,see,C,NA,default,23,Yes,NA,Female,english,NA,47
1227,default,block2,isabella,ai,0.78,15454,confirm,53,confirm,C,NA,default,23,Yes,NA,Female,english,NA,48
1227,default,block2,charley,ai,0.83,7445,prove,54,prove,C,NA,default,23,Yes,NA,Female,english,NA,49
1227,default,block2,muffins,ai,0.010000000000000009,5938,MC,55,MC,MC,NA,default,23,Yes,NA,Female,english,NA,50
1227,default,block2,olivia,ai,0.99,9708,inform,56,inform,C,NA,default,23,Yes,NA,Female,english,NA,51
1227,default,block2,zoe,ai,0.39,18166,confess,57,confess,C,NA,default,23,Yes,NA,Female,english,NA,52
1243,default,block1,mary,ai,0.96,21125,discover,5,discover,C,NA,default,18,Yes,NA,Female,english,NA,1
1243,default,block1,charley,ai,0.97,14612,acknowledge,6,acknowledge,C,NA,default,18,Yes,NA,Female,english,NA,2
1243,default,block1,sophia,ai,0.94,8411,prove,7,prove,C,NA,default,18,Yes,NA,Female,english,NA,3
1243,default,block1,frank,ai,0.96,3895,think,8,think,C,NA,default,18,Yes,NA,Female,english,NA,4
1243,default,block1,jackson,ai,0.97,1969,see,9,see,C,NA,default,18,Yes,NA,Female,english,NA,5
1243,default,block1,olivia,ai,0.96,3179,demonstrate,10,demonstrate,C,NA,default,18,Yes,NA,Female,english,NA,6
1243,default,block1,pizza,ai,0.020000000000000018,9373,MC,11,MC,MC,NA,default,18,Yes,NA,Female,english,NA,7
1243,default,block1,jayden,ai,0.98,7495,pretend,12,pretend,C,NA,default,18,Yes,NA,Female,english,NA,8
1243,default,block1,emma,ai,0.97,2862,say,13,say,C,NA,default,18,Yes,NA,Female,english,NA,9
1243,default,block1,zoe,ai,0.99,3582,announce,14,announce,C,NA,default,18,Yes,NA,Female,english,NA,10
1243,default,block1,owen,ai,1,3534,inform,15,inform,C,NA,default,18,Yes,NA,Female,english,NA,11
1243,default,block1,emily,ai,0.98,2562,confess,16,confess,C,NA,default,18,Yes,NA,Female,english,NA,12
1243,default,block1,danny,ai,0.99,2181,know,17,know,C,NA,default,18,Yes,NA,Female,english,NA,13
1243,default,block1,garage,ai,0.030000000000000027,6822,MC,18,MC,MC,NA,default,18,Yes,NA,Female,english,NA,14
1243,default,block1,julian,ai,0.98,8454,hear,19,hear,C,NA,default,18,Yes,NA,Female,english,NA,15
1243,default,block1,grace,ai,0.99,2302,suggest,20,suggest,C,NA,default,18,Yes,NA,Female,english,NA,16
1243,default,block1,isabella,ai,0.97,3851,reveal,21,reveal,C,NA,default,18,Yes,NA,Female,english,NA,17
1243,default,block1,kids,ai,0.030000000000000027,6667,MC,22,MC,MC,NA,default,18,Yes,NA,Female,english,NA,18
1243,default,block1,josh,ai,1,5652,be_annoyed,23,be_annoyed,C,NA,default,18,Yes,NA,Female,english,NA,19
1243,default,block1,hat,ai,0.040000000000000036,6157,MC,24,MC,MC,NA,default,18,Yes,NA,Female,english,NA,20
1243,default,block1,jon,ai,0.99,4131,confirm,25,confirm,C,NA,default,18,Yes,NA,Female,english,NA,21
1243,default,block1,muffins,ai,0.040000000000000036,3407,MC,26,MC,MC,NA,default,18,Yes,NA,Female,english,NA,22
1243,default,block1,tony,ai,0.98,3451,be_right,27,be_right,C,NA,default,18,Yes,NA,Female,english,NA,23
1243,default,block1,josie,ai,0.98,3943,establish,28,establish,C,NA,default,18,Yes,NA,Female,english,NA,24
1243,default,block1,mia,ai,1,3047,admit,29,admit,C,NA,default,18,Yes,NA,Female,english,NA,25
1243,default,block1,ballet,ai,0.020000000000000018,4336,MC,30,MC,MC,NA,default,18,Yes,NA,Female,english,NA,26
1243,default,block2,josie,projective,0.04,10915,establish,32,establish,C,NA,default,18,Yes,NA,Female,english,NA,27
1243,default,block2,hat,projective,0.95,6702,MC,33,MC,MC,NA,default,18,Yes,NA,Female,english,NA,28
1243,default,block2,tony,projective,1,8304,be_right,34,be_right,C,NA,default,18,Yes,NA,Female,english,NA,29
1243,default,block2,frank,projective,0.97,4063,think,35,think,C,NA,default,18,Yes,NA,Female,english,NA,30
1243,default,block2,josh,projective,0.96,4119,be_annoyed,36,be_annoyed,C,NA,default,18,Yes,NA,Female,english,NA,31
1243,default,block2,owen,projective,0.98,3438,inform,37,inform,C,NA,default,18,Yes,NA,Female,english,NA,32
1243,default,block2,danny,projective,0.97,2569,know,38,know,C,NA,default,18,Yes,NA,Female,english,NA,33
1243,default,block2,emma,projective,0.97,3262,say,39,say,C,NA,default,18,Yes,NA,Female,english,NA,34
1243,default,block2,julian,projective,0.96,2822,hear,40,hear,C,NA,default,18,Yes,NA,Female,english,NA,35
1243,default,block2,mia,projective,0.96,3019,admit,41,admit,C,NA,default,18,Yes,NA,Female,english,NA,36
1243,default,block2,jackson,projective,1,1789,see,42,see,C,NA,default,18,Yes,NA,Female,english,NA,37
1243,default,block2,garage,projective,1,10672,MC,43,MC,MC,NA,default,18,Yes,NA,Female,english,NA,38
1243,default,block2,jayden,projective,0.99,3799,pretend,44,pretend,C,NA,default,18,Yes,NA,Female,english,NA,39
1243,default,block2,emily,projective,0.96,2181,confess,45,confess,C,NA,default,18,Yes,NA,Female,english,NA,40
1243,default,block2,isabella,projective,0.99,2690,reveal,46,reveal,C,NA,default,18,Yes,NA,Female,english,NA,41
1243,default,block2,ballet,projective,0.96,4472,MC,47,MC,MC,NA,default,18,Yes,NA,Female,english,NA,42
1243,default,block2,zoe,projective,0.97,2798,announce,48,announce,C,NA,default,18,Yes,NA,Female,english,NA,43
1243,default,block2,pizza,projective,0.97,5088,MC,49,MC,MC,NA,default,18,Yes,NA,Female,english,NA,44
1243,default,block2,muffins,projective,0.99,5700,MC,50,MC,MC,NA,default,18,Yes,NA,Female,english,NA,45
1243,default,block2,jon,projective,0.98,2594,confirm,51,confirm,C,NA,default,18,Yes,NA,Female,english,NA,46
1243,default,block2,kids,projective,0.97,3774,MC,52,MC,MC,NA,default,18,Yes,NA,Female,english,NA,47
1243,default,block2,grace,projective,0.97,2542,suggest,53,suggest,C,NA,default,18,Yes,NA,Female,english,NA,48
1243,default,block2,mary,projective,0.97,2026,discover,54,discover,C,NA,default,18,Yes,NA,Female,english,NA,49
1243,default,block2,sophia,projective,0.97,2670,prove,55,prove,C,NA,default,18,Yes,NA,Female,english,NA,50
1243,default,block2,charley,projective,0.99,1961,acknowledge,56,acknowledge,C,NA,default,18,Yes,NA,Female,english,NA,51
1243,default,block2,olivia,projective,0.99,1830,demonstrate,57,demonstrate,C,NA,default,18,Yes,NA,Female,english,NA,52
1286,default,block1,owen,projective,0.15,11964,pretend,5,pretend,C,NA,default,29,Yes,NA,Female,English,NA,1
1286,default,block1,charley,projective,0.97,8633,hear,6,hear,C,NA,default,29,Yes,NA,Female,English,NA,2
1286,default,block1,jon,projective,0.2,7238,think,7,think,C,NA,default,29,Yes,NA,Female,English,NA,3
1286,default,block1,mia,projective,0.95,6785,admit,8,admit,C,NA,default,29,Yes,NA,Female,English,NA,4
1286,default,block1,muffins,projective,0.99,30025,MC,9,MC,MC,NA,default,29,Yes,NA,Female,English,NA,5
1286,default,block1,mary,projective,0.16,8108,confirm,10,confirm,C,NA,default,29,Yes,NA,Female,English,NA,6
1286,default,block1,emily,projective,0.97,3582,confess,11,confess,C,NA,default,29,Yes,NA,Female,English,NA,7
1286,default,block1,danny,projective,0.96,6040,be_annoyed,12,be_annoyed,C,NA,default,29,Yes,NA,Female,English,NA,8
1286,default,block1,zoe,projective,0.81,9447,prove,13,prove,C,NA,default,29,Yes,NA,Female,English,NA,9
1286,default,block1,isabella,projective,0.31,6248,establish,14,establish,C,NA,default,29,Yes,NA,Female,English,NA,10
1286,default,block1,jayden,projective,0.95,6060,inform,15,inform,C,NA,default,29,Yes,NA,Female,English,NA,11
1286,default,block1,josie,projective,0.94,20766,know,16,know,C,NA,default,29,Yes,NA,Female,English,NA,12
1286,default,block1,emma,projective,0.95,10573,reveal,17,reveal,C,NA,default,29,Yes,NA,Female,English,NA,13
1286,default,block1,sophia,projective,0.25,2701,say,18,say,C,NA,default,29,Yes,NA,Female,English,NA,14
1286,default,block1,grace,projective,0.97,2735,announce,19,announce,C,NA,default,29,Yes,NA,Female,English,NA,15
1286,default,block1,julian,projective,0.36,3297,suggest,20,suggest,C,NA,default,29,Yes,NA,Female,English,NA,16
1286,default,block1,pizza,projective,0.94,4779,MC,21,MC,MC,NA,default,29,Yes,NA,Female,English,NA,17
1286,default,block1,ballet,projective,0.97,5786,MC,22,MC,MC,NA,default,29,Yes,NA,Female,English,NA,18
1286,default,block1,frank,projective,0.97,3473,see,23,see,C,NA,default,29,Yes,NA,Female,English,NA,19
1286,default,block1,josh,projective,0.3,2557,be_right,24,be_right,C,NA,default,29,Yes,NA,Female,English,NA,20
1286,default,block1,hat,projective,0.98,4381,MC,25,MC,MC,NA,default,29,Yes,NA,Female,English,NA,21
1286,default,block1,kids,projective,0.95,4075,MC,26,MC,MC,NA,default,29,Yes,NA,Female,English,NA,22
1286,default,block1,olivia,projective,0.44,4743,acknowledge,27,acknowledge,C,NA,default,29,Yes,NA,Female,English,NA,23
1286,default,block1,garage,projective,0.99,3077,MC,28,MC,MC,NA,default,29,Yes,NA,Female,English,NA,24
1286,default,block1,jackson,projective,0.72,4945,discover,29,discover,C,NA,default,29,Yes,NA,Female,English,NA,25
1286,default,block1,tony,projective,0.35,2663,demonstrate,30,demonstrate,C,NA,default,29,Yes,NA,Female,English,NA,26
1286,default,block2,ballet,ai,0.44999999999999996,7872,MC,32,MC,MC,NA,default,29,Yes,NA,Female,English,NA,27
1286,default,block2,olivia,ai,0.44999999999999996,4290,acknowledge,33,acknowledge,C,NA,default,29,Yes,NA,Female,English,NA,28
1286,default,block2,emma,ai,0.39,3104,reveal,34,reveal,C,NA,default,29,Yes,NA,Female,English,NA,29
1286,default,block2,hat,ai,0.010000000000000009,3431,MC,35,MC,MC,NA,default,29,Yes,NA,Female,English,NA,30
1286,default,block2,kids,ai,0.31999999999999995,2261,MC,36,MC,MC,NA,default,29,Yes,NA,Female,English,NA,31
1286,default,block2,muffins,ai,0.35,4249,MC,37,MC,MC,NA,default,29,Yes,NA,Female,English,NA,32
1286,default,block2,josie,ai,0.36,2186,know,38,know,C,NA,default,29,Yes,NA,Female,English,NA,33
1286,default,block2,jayden,ai,0.31000000000000005,2901,inform,39,inform,C,NA,default,29,Yes,NA,Female,English,NA,34
1286,default,block2,owen,ai,0.39,3295,pretend,40,pretend,C,NA,default,29,Yes,NA,Female,English,NA,35
1286,default,block2,jon,ai,0.75,7923,think,41,think,C,NA,default,29,Yes,NA,Female,English,NA,36
1286,default,block2,garage,ai,0.010000000000000009,4075,MC,42,MC,MC,NA,default,29,Yes,NA,Female,English,NA,37
1286,default,block2,frank,ai,0.63,3893,see,43,see,C,NA,default,29,Yes,NA,Female,English,NA,38
1286,default,block2,pizza,ai,0.030000000000000027,2951,MC,44,MC,MC,NA,default,29,Yes,NA,Female,English,NA,39
1286,default,block2,mary,ai,0.6,4287,confirm,45,confirm,C,NA,default,29,Yes,NA,Female,English,NA,40
1286,default,block2,tony,ai,0.96,6901,demonstrate,46,demonstrate,C,NA,default,29,Yes,NA,Female,English,NA,41
1286,default,block2,mia,ai,0.76,4678,admit,47,admit,C,NA,default,29,Yes,NA,Female,English,NA,42
1286,default,block2,emily,ai,0.76,1640,confess,48,confess,C,NA,default,29,Yes,NA,Female,English,NA,43
1286,default,block2,josh,ai,0.71,2344,be_right,49,be_right,C,NA,default,29,Yes,NA,Female,English,NA,44
1286,default,block2,jackson,ai,0.75,2144,discover,50,discover,C,NA,default,29,Yes,NA,Female,English,NA,45
1286,default,block2,zoe,ai,0.86,3966,prove,51,prove,C,NA,default,29,Yes,NA,Female,English,NA,46
1286,default,block2,isabella,ai,0.78,3872,establish,52,establish,C,NA,default,29,Yes,NA,Female,English,NA,47
1286,default,block2,julian,ai,0.72,3400,suggest,53,suggest,C,NA,default,29,Yes,NA,Female,English,NA,48
1286,default,block2,sophia,ai,0.8200000000000001,3295,say,54,say,C,NA,default,29,Yes,NA,Female,English,NA,49
1286,default,block2,danny,ai,0.79,4223,be_annoyed,55,be_annoyed,C,NA,default,29,Yes,NA,Female,English,NA,50
1286,default,block2,grace,ai,0.86,9165,announce,56,announce,C,NA,default,29,Yes,NA,Female,English,NA,51
1286,default,block2,charley,ai,0.6799999999999999,2847,hear,57,hear,C,NA,default,29,Yes,NA,Female,English,NA,52
1271,default,block1,kids,ai,0,14619,MC,5,MC,MC,NA,default,19,Yes,NA,Female,English,NA,1
1271,default,block1,danny,ai,1,9107,suggest,6,suggest,C,NA,default,19,Yes,NA,Female,English,NA,2
1271,default,block1,grace,ai,1,8685,discover,7,discover,C,NA,default,19,Yes,NA,Female,English,NA,3
1271,default,block1,josie,ai,0.99,11010,reveal,8,reveal,C,NA,default,19,Yes,NA,Female,English,NA,4
1271,default,block1,jon,ai,0.88,12424,announce,9,announce,C,NA,default,19,Yes,NA,Female,English,NA,5
1271,default,block1,pizza,ai,0,6385,MC,10,MC,MC,NA,default,19,Yes,NA,Female,English,NA,6
1271,default,block1,frank,ai,0.99,11712,know,11,know,C,NA,default,19,Yes,NA,Female,English,NA,7
1271,default,block1,hat,ai,0,5599,MC,12,MC,MC,NA,default,19,Yes,NA,Female,English,NA,8
1271,default,block1,emily,ai,0.99,10459,confess,13,confess,C,NA,default,19,Yes,NA,Female,English,NA,9
1271,default,block1,sophia,ai,1,7258,pretend,14,pretend,C,NA,default,19,Yes,NA,Female,English,NA,10
1271,default,block1,mia,ai,1,9407,be_annoyed,15,be_annoyed,C,NA,default,19,Yes,NA,Female,English,NA,11
1271,default,block1,jayden,ai,1,7101,hear,16,hear,C,NA,default,19,Yes,NA,Female,English,NA,12
1271,default,block1,jackson,ai,1,8919,say,17,say,C,NA,default,19,Yes,NA,Female,English,NA,13
1271,default,block1,julian,ai,1,7733,see,18,see,C,NA,default,19,Yes,NA,Female,English,NA,14
1271,default,block1,isabella,ai,0.9299999999999999,12089,confirm,19,confirm,C,NA,default,19,Yes,NA,Female,English,NA,15
1271,default,block1,garage,ai,0,6905,MC,20,MC,MC,NA,default,19,Yes,NA,Female,English,NA,16
1271,default,block1,olivia,ai,0.96,13505,acknowledge,21,acknowledge,C,NA,default,19,Yes,NA,Female,English,NA,17
1271,default,block1,mary,ai,1,9255,be_right,22,be_right,C,NA,default,19,Yes,NA,Female,English,NA,18
1271,default,block1,emma,ai,1,9651,demonstrate,23,demonstrate,C,NA,default,19,Yes,NA,Female,English,NA,19
1271,default,block1,charley,ai,1,7846,inform,24,inform,C,NA,default,19,Yes,NA,Female,English,NA,20
1271,default,block1,tony,ai,0.91,8939,establish,25,establish,C,NA,default,19,Yes,NA,Female,English,NA,21
1271,default,block1,muffins,ai,0,6391,MC,26,MC,MC,NA,default,19,Yes,NA,Female,English,NA,22
1271,default,block1,zoe,ai,1,9721,think,27,think,C,NA,default,19,Yes,NA,Female,English,NA,23
1271,default,block1,owen,ai,1,7208,admit,28,admit,C,NA,default,19,Yes,NA,Female,English,NA,24
1271,default,block1,josh,ai,1,8929,prove,29,prove,C,NA,default,19,Yes,NA,Female,English,NA,25
1271,default,block1,ballet,ai,0,6054,MC,30,MC,MC,NA,default,19,Yes,NA,Female,English,NA,26
1271,default,block2,garage,projective,1,10952,MC,32,MC,MC,NA,default,19,Yes,NA,Female,English,NA,27
1271,default,block2,ballet,projective,0.98,5464,MC,33,MC,MC,NA,default,19,Yes,NA,Female,English,NA,28
1271,default,block2,mia,projective,0.83,14347,be_annoyed,34,be_annoyed,C,NA,default,19,Yes,NA,Female,English,NA,29
1271,default,block2,owen,projective,0.83,10031,admit,35,admit,C,NA,default,19,Yes,NA,Female,English,NA,30
1271,default,block2,tony,projective,0.17,9124,establish,36,establish,C,NA,default,19,Yes,NA,Female,English,NA,31
1271,default,block2,charley,projective,0.81,8306,inform,37,inform,C,NA,default,19,Yes,NA,Female,English,NA,32
1271,default,block2,emily,projective,0.86,5745,confess,38,confess,C,NA,default,19,Yes,NA,Female,English,NA,33
1271,default,block2,isabella,projective,0.26,8405,confirm,39,confirm,C,NA,default,19,Yes,NA,Female,English,NA,34
1271,default,block2,sophia,projective,0,6573,pretend,40,pretend,C,NA,default,19,Yes,NA,Female,English,NA,35
1271,default,block2,zoe,projective,0.01,9107,think,41,think,C,NA,default,19,Yes,NA,Female,English,NA,36
1271,default,block2,kids,projective,0.99,8049,MC,42,MC,MC,NA,default,19,Yes,NA,Female,English,NA,37
1271,default,block2,pizza,projective,0.99,4842,MC,43,MC,MC,NA,default,19,Yes,NA,Female,English,NA,38
1271,default,block2,jayden,projective,0.42,10340,hear,44,hear,C,NA,default,19,Yes,NA,Female,English,NA,39
1271,default,block2,hat,projective,0.99,5061,MC,45,MC,MC,NA,default,19,Yes,NA,Female,English,NA,40
1271,default,block2,josh,projective,0.4,11039,prove,46,prove,C,NA,default,19,Yes,NA,Female,English,NA,41
1271,default,block2,mary,projective,0,6919,be_right,47,be_right,C,NA,default,19,Yes,NA,Female,English,NA,42
1271,default,block2,danny,projective,0.15,10969,suggest,48,suggest,C,NA,default,19,Yes,NA,Female,English,NA,43
1271,default,block2,julian,projective,0.72,7234,see,49,see,C,NA,default,19,Yes,NA,Female,English,NA,44
1271,default,block2,muffins,projective,0.99,4291,MC,50,MC,MC,NA,default,19,Yes,NA,Female,English,NA,45
1271,default,block2,jackson,projective,0.32,7179,say,51,say,C,NA,default,19,Yes,NA,Female,English,NA,46
1271,default,block2,emma,projective,0.33,13941,demonstrate,52,demonstrate,C,NA,default,19,Yes,NA,Female,English,NA,47
1271,default,block2,jon,projective,0.12,5448,announce,53,announce,C,NA,default,19,Yes,NA,Female,English,NA,48
1271,default,block2,frank,projective,0.77,7274,know,54,know,C,NA,default,19,Yes,NA,Female,English,NA,49
1271,default,block2,josie,projective,0.77,6281,reveal,55,reveal,C,NA,default,19,Yes,NA,Female,English,NA,50
1271,default,block2,grace,projective,0.76,5543,discover,56,discover,C,NA,default,19,Yes,NA,Female,English,NA,51
1271,default,block2,olivia,projective,0.61,13296,acknowledge,57,acknowledge,C,NA,default,19,Yes,NA,Female,English,NA,52
1187,default,block1,mia,projective,0.05,21514,establish,5,establish,C,NA,default,23,Yes,NA,Female,english,NA,1
1187,default,block1,jayden,projective,0.11,10106,announce,6,announce,C,NA,default,23,Yes,NA,Female,english,NA,2
1187,default,block1,julian,projective,0.48,7296,see,7,see,C,NA,default,23,Yes,NA,Female,english,NA,3
1187,default,block1,olivia,projective,0.24,11424,reveal,8,reveal,C,NA,default,23,Yes,NA,Female,english,NA,4
1187,default,block1,jon,projective,0.2,7482,confess,9,confess,C,NA,default,23,Yes,NA,Female,english,NA,5
1187,default,block1,jackson,projective,0.3,3886,discover,10,discover,C,NA,default,23,Yes,NA,Female,english,NA,6
1187,default,block1,emma,projective,0.23,10313,acknowledge,11,acknowledge,C,NA,default,23,Yes,NA,Female,english,NA,7
1187,default,block1,danny,projective,0.49,6549,suggest,12,suggest,C,NA,default,23,Yes,NA,Female,english,NA,8
1187,default,block1,mary,projective,0.48,5918,admit,13,admit,C,NA,default,23,Yes,NA,Female,english,NA,9
1187,default,block1,pizza,projective,0.96,7745,MC,14,MC,MC,NA,default,23,Yes,NA,Female,english,NA,10
1187,default,block1,owen,projective,0.48,25513,be_right,15,be_right,C,NA,default,23,Yes,NA,Female,english,NA,11
1187,default,block1,ballet,projective,0.97,5576,MC,16,MC,MC,NA,default,23,Yes,NA,Female,english,NA,12
1187,default,block1,muffins,projective,0.98,4015,MC,17,MC,MC,NA,default,23,Yes,NA,Female,english,NA,13
1187,default,block1,frank,projective,0.88,11314,know,18,know,C,NA,default,23,Yes,NA,Female,english,NA,14
1187,default,block1,grace,projective,0.5,40814,pretend,19,pretend,C,NA,default,23,Yes,NA,Female,english,NA,15
1187,default,block1,garage,projective,1,18278,MC,20,MC,MC,NA,default,23,Yes,NA,Female,english,NA,16
1187,default,block1,zoe,projective,0.49,12027,demonstrate,21,demonstrate,C,NA,default,23,Yes,NA,Female,english,NA,17
1187,default,block1,hat,projective,1,11861,MC,22,MC,MC,NA,default,23,Yes,NA,Female,english,NA,18
1187,default,block1,tony,projective,0.25,17719,think,23,think,C,NA,default,23,Yes,NA,Female,english,NA,19
1187,default,block1,charley,projective,0.2,6749,say,24,say,C,NA,default,23,Yes,NA,Female,english,NA,20
1187,default,block1,josh,projective,0.33,6611,inform,25,inform,C,NA,default,23,Yes,NA,Female,english,NA,21
1187,default,block1,josie,projective,0.26,3828,hear,26,hear,C,NA,default,23,Yes,NA,Female,english,NA,22
1187,default,block1,emily,projective,0.25,5989,be_annoyed,27,be_annoyed,C,NA,default,23,Yes,NA,Female,english,NA,23
1187,default,block1,isabella,projective,0.23,3716,confirm,28,confirm,C,NA,default,23,Yes,NA,Female,english,NA,24
1187,default,block1,sophia,projective,0.2,4304,prove,29,prove,C,NA,default,23,Yes,NA,Female,english,NA,25
1187,default,block1,kids,projective,0.95,3761,MC,30,MC,MC,NA,default,23,Yes,NA,Female,english,NA,26
1187,default,block2,danny,ai,0.9299999999999999,16762,suggest,32,suggest,C,NA,default,23,Yes,NA,Female,english,NA,27
1187,default,block2,emily,ai,0.9,9447,be_annoyed,33,be_annoyed,C,NA,default,23,Yes,NA,Female,english,NA,28
1187,default,block2,kids,ai,0.040000000000000036,5371,MC,34,MC,MC,NA,default,23,Yes,NA,Female,english,NA,29
1187,default,block2,muffins,ai,0.06000000000000005,3657,MC,35,MC,MC,NA,default,23,Yes,NA,Female,english,NA,30
1187,default,block2,jayden,ai,0.97,5237,announce,36,announce,C,NA,default,23,Yes,NA,Female,english,NA,31
1187,default,block2,garage,ai,0.06999999999999995,3133,MC,37,MC,MC,NA,default,23,Yes,NA,Female,english,NA,32
1187,default,block2,olivia,ai,0.95,6582,reveal,38,reveal,C,NA,default,23,Yes,NA,Female,english,NA,33
1187,default,block2,julian,ai,0.95,4811,see,39,see,C,NA,default,23,Yes,NA,Female,english,NA,34
1187,default,block2,frank,ai,0.96,6717,know,40,know,C,NA,default,23,Yes,NA,Female,english,NA,35
1187,default,block2,owen,ai,0.96,33584,be_right,41,be_right,C,NA,default,23,Yes,NA,Female,english,NA,36
1187,default,block2,pizza,ai,0.030000000000000027,3759,MC,42,MC,MC,NA,default,23,Yes,NA,Female,english,NA,37
1187,default,block2,grace,ai,0.96,3391,pretend,43,pretend,C,NA,default,23,Yes,NA,Female,english,NA,38
1187,default,block2,tony,ai,0.98,3043,think,44,think,C,NA,default,23,Yes,NA,Female,english,NA,39
1187,default,block2,charley,ai,0.95,4852,say,45,say,C,NA,default,23,Yes,NA,Female,english,NA,40
1187,default,block2,isabella,ai,0.95,3722,confirm,46,confirm,C,NA,default,23,Yes,NA,Female,english,NA,41
1187,default,block2,sophia,ai,0.96,13673,prove,47,prove,C,NA,default,23,Yes,NA,Female,english,NA,42
1187,default,block2,jon,ai,0.98,4978,confess,48,confess,C,NA,default,23,Yes,NA,Female,english,NA,43
1187,default,block2,josie,ai,0.97,2976,hear,49,hear,C,NA,default,23,Yes,NA,Female,english,NA,44
1187,default,block2,josh,ai,0.96,3856,inform,50,inform,C,NA,default,23,Yes,NA,Female,english,NA,45
1187,default,block2,jackson,ai,0.95,3343,discover,51,discover,C,NA,default,23,Yes,NA,Female,english,NA,46
1187,default,block2,mia,ai,0.97,3450,establish,52,establish,C,NA,default,23,Yes,NA,Female,english,NA,47
1187,default,block2,ballet,ai,0.020000000000000018,3034,MC,53,MC,MC,NA,default,23,Yes,NA,Female,english,NA,48
1187,default,block2,hat,ai,0.040000000000000036,2987,MC,54,MC,MC,NA,default,23,Yes,NA,Female,english,NA,49
1187,default,block2,mary,ai,0.97,6033,admit,55,admit,C,NA,default,23,Yes,NA,Female,english,NA,50
1187,default,block2,zoe,ai,0.96,3749,demonstrate,56,demonstrate,C,NA,default,23,Yes,NA,Female,english,NA,51
1187,default,block2,emma,ai,0.98,3878,acknowledge,57,acknowledge,C,NA,default,23,Yes,NA,Female,english,NA,52
1427,default,block1,pizza,ai,0.09999999999999998,3037,MC,5,MC,MC,NA,default,44,Yes,nice survey,Male,english,NA,1
1427,default,block1,frank,ai,0.07999999999999996,1236,admit,6,admit,C,NA,default,44,Yes,nice survey,Male,english,NA,2
1427,default,block1,mary,ai,0.07999999999999996,1433,reveal,7,reveal,C,NA,default,44,Yes,nice survey,Male,english,NA,3
1427,default,block1,zoe,ai,0.14,2174,announce,8,announce,C,NA,default,44,Yes,nice survey,Male,english,NA,4
1427,default,block1,emily,ai,0.050000000000000044,1081,say,9,say,C,NA,default,44,Yes,nice survey,Male,english,NA,5
1427,default,block1,garage,ai,0.10999999999999999,2367,MC,10,MC,MC,NA,default,44,Yes,nice survey,Male,english,NA,6
1427,default,block1,danny,ai,0.06999999999999995,43656,be_annoyed,11,be_annoyed,C,NA,default,44,Yes,nice survey,Male,english,NA,7
1427,default,block1,josh,ai,0.06000000000000005,39278,think,12,think,C,NA,default,44,Yes,nice survey,Male,english,NA,8
1427,default,block1,olivia,ai,0.12,1261,inform,13,inform,C,NA,default,44,Yes,nice survey,Male,english,NA,9
1427,default,block1,sophia,ai,0.050000000000000044,1071,confirm,14,confirm,C,NA,default,44,Yes,nice survey,Male,english,NA,10
1427,default,block1,julian,ai,0.19999999999999996,1310,prove,15,prove,C,NA,default,44,Yes,nice survey,Male,english,NA,11
1427,default,block1,emma,ai,0.15000000000000002,6539,suggest,16,suggest,C,NA,default,44,Yes,nice survey,Male,english,NA,12
1427,default,block1,jon,ai,0.14,1772,see,17,see,C,NA,default,44,Yes,nice survey,Male,english,NA,13
1427,default,block1,kids,ai,0.06999999999999995,1952,MC,18,MC,MC,NA,default,44,Yes,nice survey,Male,english,NA,14
1427,default,block1,muffins,ai,0.07999999999999996,1329,MC,19,MC,MC,NA,default,44,Yes,nice survey,Male,english,NA,15
1427,default,block1,ballet,ai,0.18000000000000005,1738,MC,20,MC,MC,NA,default,44,Yes,nice survey,Male,english,NA,16
1427,default,block1,josie,ai,0.06999999999999995,1073,be_right,21,be_right,C,NA,default,44,Yes,nice survey,Male,english,NA,17
1427,default,block1,owen,ai,0.14,1076,acknowledge,22,acknowledge,C,NA,default,44,Yes,nice survey,Male,english,NA,18
1427,default,block1,charley,ai,0.13,1159,hear,23,hear,C,NA,default,44,Yes,nice survey,Male,english,NA,19
1427,default,block1,mia,ai,0.030000000000000027,47833,demonstrate,24,demonstrate,C,NA,default,44,Yes,nice survey,Male,english,NA,20
1427,default,block1,jayden,ai,0.050000000000000044,1263,pretend,25,pretend,C,NA,default,44,Yes,nice survey,Male,english,NA,21
1427,default,block1,tony,ai,0.040000000000000036,1241,know,26,know,C,NA,default,44,Yes,nice survey,Male,english,NA,22
1427,default,block1,jackson,ai,0.07999999999999996,1671,discover,27,discover,C,NA,default,44,Yes,nice survey,Male,english,NA,23
1427,default,block1,hat,ai,0.06000000000000005,1856,MC,28,MC,MC,NA,default,44,Yes,nice survey,Male,english,NA,24
1427,default,block1,grace,ai,0.08999999999999997,8614,establish,29,establish,C,NA,default,44,Yes,nice survey,Male,english,NA,25
1427,default,block1,isabella,ai,0.06000000000000005,57279,confess,30,confess,C,NA,default,44,Yes,nice survey,Male,english,NA,26
1427,default,block2,kids,projective,0.84,2467,MC,32,MC,MC,NA,default,44,Yes,nice survey,Male,english,NA,27
1427,default,block2,sophia,projective,0.36,1489,confirm,33,confirm,C,NA,default,44,Yes,nice survey,Male,english,NA,28
1427,default,block2,mary,projective,0.85,955,reveal,34,reveal,C,NA,default,44,Yes,nice survey,Male,english,NA,29
1427,default,block2,pizza,projective,0.33,1305,MC,35,MC,MC,NA,default,44,Yes,nice survey,Male,english,NA,30
1427,default,block2,emma,projective,0.83,824,suggest,36,suggest,C,NA,default,44,Yes,nice survey,Male,english,NA,31
1427,default,block2,julian,projective,0.16,20039,prove,37,prove,C,NA,default,44,Yes,nice survey,Male,english,NA,32
1427,default,block2,jayden,projective,0.85,8548,pretend,38,pretend,C,NA,default,44,Yes,nice survey,Male,english,NA,33
1427,default,block2,frank,projective,0.81,20552,admit,39,admit,C,NA,default,44,Yes,nice survey,Male,english,NA,34
1427,default,block2,danny,projective,0.84,64004,be_annoyed,40,be_annoyed,C,NA,default,44,Yes,nice survey,Male,english,NA,35
1427,default,block2,jon,projective,0.8,4153,see,41,see,C,NA,default,44,Yes,nice survey,Male,english,NA,36
1427,default,block2,josh,projective,0.88,18912,think,42,think,C,NA,default,44,Yes,nice survey,Male,english,NA,37
1427,default,block2,garage,projective,0.83,30896,MC,43,MC,MC,NA,default,44,Yes,nice survey,Male,english,NA,38
1427,default,block2,olivia,projective,0.86,13454,inform,44,inform,C,NA,default,44,Yes,nice survey,Male,english,NA,39
1427,default,block2,ballet,projective,0.88,31045,MC,45,MC,MC,NA,default,44,Yes,nice survey,Male,english,NA,40
1427,default,block2,emily,projective,0.88,1166,say,46,say,C,NA,default,44,Yes,nice survey,Male,english,NA,41
1427,default,block2,mia,projective,0.84,1968,demonstrate,47,demonstrate,C,NA,default,44,Yes,nice survey,Male,english,NA,42
1427,default,block2,charley,projective,0.89,14800,hear,48,hear,C,NA,default,44,Yes,nice survey,Male,english,NA,43
1427,default,block2,jackson,projective,0.96,1093,discover,49,discover,C,NA,default,44,Yes,nice survey,Male,english,NA,44
1427,default,block2,zoe,projective,0.96,1057,announce,50,announce,C,NA,default,44,Yes,nice survey,Male,english,NA,45
1427,default,block2,hat,projective,0.9,14335,MC,51,MC,MC,NA,default,44,Yes,nice survey,Male,english,NA,46
1427,default,block2,tony,projective,0.91,5462,know,52,know,C,NA,default,44,Yes,nice survey,Male,english,NA,47
1427,default,block2,grace,projective,0.83,932,establish,53,establish,C,NA,default,44,Yes,nice survey,Male,english,NA,48
1427,default,block2,owen,projective,0.79,891,acknowledge,54,acknowledge,C,NA,default,44,Yes,nice survey,Male,english,NA,49
1427,default,block2,josie,projective,0.77,954,be_right,55,be_right,C,NA,default,44,Yes,nice survey,Male,english,NA,50
1427,default,block2,muffins,projective,0.87,20422,MC,56,MC,MC,NA,default,44,Yes,nice survey,Male,english,NA,51
1427,default,block2,isabella,projective,0.88,1213,confess,57,confess,C,NA,default,44,Yes,nice survey,Male,english,NA,52
1410,default,block1,jon,ai,1,26225,acknowledge,5,acknowledge,C,NA,default,30,Yes,N/A,Female,English,NA,1
1410,default,block1,owen,ai,0.97,11600,establish,6,establish,C,NA,default,30,Yes,N/A,Female,English,NA,2
1410,default,block1,sophia,ai,0.97,10398,reveal,7,reveal,C,NA,default,30,Yes,N/A,Female,English,NA,3
1410,default,block1,emma,ai,0.99,12689,prove,8,prove,C,NA,default,30,Yes,N/A,Female,English,NA,4
1410,default,block1,jackson,ai,0.98,5357,pretend,9,pretend,C,NA,default,30,Yes,N/A,Female,English,NA,5
1410,default,block1,josh,ai,0.97,7106,see,10,see,C,NA,default,30,Yes,N/A,Female,English,NA,6
1410,default,block1,mia,ai,0.95,15227,say,11,say,C,NA,default,30,Yes,N/A,Female,English,NA,7
1410,default,block1,emily,ai,0.97,6930,confess,12,confess,C,NA,default,30,Yes,N/A,Female,English,NA,8
1410,default,block1,frank,ai,0.98,6406,suggest,13,suggest,C,NA,default,30,Yes,N/A,Female,English,NA,9
1410,default,block1,ballet,ai,0.040000000000000036,10082,MC,14,MC,MC,NA,default,30,Yes,N/A,Female,English,NA,10
1410,default,block1,danny,ai,0.96,8816,think,15,think,C,NA,default,30,Yes,N/A,Female,English,NA,11
1410,default,block1,isabella,ai,0.96,8725,announce,16,announce,C,NA,default,30,Yes,N/A,Female,English,NA,12
1410,default,block1,zoe,ai,0.98,7269,demonstrate,17,demonstrate,C,NA,default,30,Yes,N/A,Female,English,NA,13
1410,default,block1,olivia,ai,0.96,10256,confirm,18,confirm,C,NA,default,30,Yes,N/A,Female,English,NA,14
1410,default,block1,muffins,ai,0.020000000000000018,7890,MC,19,MC,MC,NA,default,30,Yes,N/A,Female,English,NA,15
1410,default,block1,hat,ai,0.030000000000000027,7700,MC,20,MC,MC,NA,default,30,Yes,N/A,Female,English,NA,16
1410,default,block1,jayden,ai,0.97,13075,know,21,know,C,NA,default,30,Yes,N/A,Female,English,NA,17
1410,default,block1,mary,ai,0.98,3912,hear,22,hear,C,NA,default,30,Yes,N/A,Female,English,NA,18
1410,default,block1,grace,ai,0.96,6119,discover,23,discover,C,NA,default,30,Yes,N/A,Female,English,NA,19
1410,default,block1,garage,ai,0.010000000000000009,8807,MC,24,MC,MC,NA,default,30,Yes,N/A,Female,English,NA,20
1410,default,block1,julian,ai,0.94,4620,be_annoyed,25,be_annoyed,C,NA,default,30,Yes,N/A,Female,English,NA,21
1410,default,block1,charley,ai,0.98,6997,be_right,26,be_right,C,NA,default,30,Yes,N/A,Female,English,NA,22
1410,default,block1,kids,ai,0.040000000000000036,4950,MC,27,MC,MC,NA,default,30,Yes,N/A,Female,English,NA,23
1410,default,block1,tony,ai,0.97,7998,inform,28,inform,C,NA,default,30,Yes,N/A,Female,English,NA,24
1410,default,block1,josie,ai,0.98,4297,admit,29,admit,C,NA,default,30,Yes,N/A,Female,English,NA,25
1410,default,block1,pizza,ai,0.030000000000000027,5386,MC,30,MC,MC,NA,default,30,Yes,N/A,Female,English,NA,26
1410,default,block2,emily,projective,0.87,17064,confess,32,confess,C,NA,default,30,Yes,N/A,Female,English,NA,27
1410,default,block2,hat,projective,0.97,6805,MC,33,MC,MC,NA,default,30,Yes,N/A,Female,English,NA,28
1410,default,block2,frank,projective,0.16,11038,suggest,34,suggest,C,NA,default,30,Yes,N/A,Female,English,NA,29
1410,default,block2,garage,projective,0.96,5146,MC,35,MC,MC,NA,default,30,Yes,N/A,Female,English,NA,30
1410,default,block2,owen,projective,0.18,19811,establish,36,establish,C,NA,default,30,Yes,N/A,Female,English,NA,31
1410,default,block2,jackson,projective,0.02,5817,pretend,37,pretend,C,NA,default,30,Yes,N/A,Female,English,NA,32
1410,default,block2,jayden,projective,0.85,29791,know,38,know,C,NA,default,30,Yes,N/A,Female,English,NA,33
1410,default,block2,grace,projective,0.91,11872,discover,39,discover,C,NA,default,30,Yes,N/A,Female,English,NA,34
1410,default,block2,mary,projective,0.87,4794,hear,40,hear,C,NA,default,30,Yes,N/A,Female,English,NA,35
1410,default,block2,mia,projective,0.08,5901,say,41,say,C,NA,default,30,Yes,N/A,Female,English,NA,36
1410,default,block2,pizza,projective,0.97,3968,MC,42,MC,MC,NA,default,30,Yes,N/A,Female,English,NA,37
1410,default,block2,josh,projective,0.85,6422,see,43,see,C,NA,default,30,Yes,N/A,Female,English,NA,38
1410,default,block2,charley,projective,0.05,4713,be_right,44,be_right,C,NA,default,30,Yes,N/A,Female,English,NA,39
1410,default,block2,zoe,projective,0.15,5128,demonstrate,45,demonstrate,C,NA,default,30,Yes,N/A,Female,English,NA,40
1410,default,block2,ballet,projective,0.98,4935,MC,46,MC,MC,NA,default,30,Yes,N/A,Female,English,NA,41
1410,default,block2,muffins,projective,0.95,3827,MC,47,MC,MC,NA,default,30,Yes,N/A,Female,English,NA,42
1410,default,block2,danny,projective,0.03,5709,think,48,think,C,NA,default,30,Yes,N/A,Female,English,NA,43
1410,default,block2,tony,projective,0.85,7438,inform,49,inform,C,NA,default,30,Yes,N/A,Female,English,NA,44
1410,default,block2,julian,projective,0.82,8305,be_annoyed,50,be_annoyed,C,NA,default,30,Yes,N/A,Female,English,NA,45
1410,default,block2,emma,projective,0.07,4411,prove,51,prove,C,NA,default,30,Yes,N/A,Female,English,NA,46
1410,default,block2,isabella,projective,0.63,21530,announce,52,announce,C,NA,default,30,Yes,N/A,Female,English,NA,47
1410,default,block2,jon,projective,0.83,9223,acknowledge,53,acknowledge,C,NA,default,30,Yes,N/A,Female,English,NA,48
1410,default,block2,kids,projective,0.97,16207,MC,54,MC,MC,NA,default,30,Yes,N/A,Female,English,NA,49
1410,default,block2,josie,projective,0.8,9644,admit,55,admit,C,NA,default,30,Yes,N/A,Female,English,NA,50
1410,default,block2,olivia,projective,0.11,4651,confirm,56,confirm,C,NA,default,30,Yes,N/A,Female,English,NA,51
1410,default,block2,sophia,projective,0.81,5855,reveal,57,reveal,C,NA,default,30,Yes,N/A,Female,English,NA,52
1257,default,block1,hat,ai,0.020000000000000018,19737,MC,5,MC,MC,NA,default,21,Yes,NA,Female,english,NA,1
1257,default,block1,mia,ai,0.72,24266,demonstrate,6,demonstrate,C,NA,default,21,Yes,NA,Female,english,NA,2
1257,default,block1,grace,ai,0.8,7917,be_right,7,be_right,C,NA,default,21,Yes,NA,Female,english,NA,3
1257,default,block1,jackson,ai,0.65,6179,say,8,say,C,NA,default,21,Yes,NA,Female,english,NA,4
1257,default,block1,jayden,ai,0.6699999999999999,10141,see,9,see,C,NA,default,21,Yes,NA,Female,english,NA,5
1257,default,block1,zoe,ai,0.65,8456,prove,10,prove,C,NA,default,21,Yes,NA,Female,english,NA,6
1257,default,block1,pizza,ai,0.22999999999999998,7505,MC,11,MC,MC,NA,default,21,Yes,NA,Female,english,NA,7
1257,default,block1,mary,ai,0.71,7914,inform,12,inform,C,NA,default,21,Yes,NA,Female,english,NA,8
1257,default,block1,isabella,ai,0.71,14560,admit,13,admit,C,NA,default,21,Yes,NA,Female,english,NA,9
1257,default,block1,charley,ai,0.74,5549,think,14,think,C,NA,default,21,Yes,NA,Female,english,NA,10
1257,default,block1,frank,ai,0.79,8271,discover,15,discover,C,NA,default,21,Yes,NA,Female,english,NA,11
1257,default,block1,emma,ai,0.72,9707,announce,16,announce,C,NA,default,21,Yes,NA,Female,english,NA,12
1257,default,block1,muffins,ai,0.71,8694,MC,17,MC,MC,NA,default,21,Yes,NA,Female,english,NA,13
1257,default,block1,danny,ai,0.39,9555,establish,18,establish,C,NA,default,21,Yes,NA,Female,english,NA,14
1257,default,block1,sophia,ai,0.31000000000000005,5578,acknowledge,19,acknowledge,C,NA,default,21,Yes,NA,Female,english,NA,15
1257,default,block1,ballet,ai,0.15000000000000002,11666,MC,20,MC,MC,NA,default,21,Yes,NA,Female,english,NA,16
1257,default,block1,jon,ai,0.7,6273,confirm,21,confirm,C,NA,default,21,Yes,NA,Female,english,NA,17
1257,default,block1,tony,ai,0.31000000000000005,10812,know,22,know,C,NA,default,21,Yes,NA,Female,english,NA,18
1257,default,block1,garage,ai,0.14,8307,MC,23,MC,MC,NA,default,21,Yes,NA,Female,english,NA,19
1257,default,block1,josie,ai,0.77,12039,be_annoyed,24,be_annoyed,C,NA,default,21,Yes,NA,Female,english,NA,20
1257,default,block1,emily,ai,0.35,8413,hear,25,hear,C,NA,default,21,Yes,NA,Female,english,NA,21
1257,default,block1,owen,ai,0.35,7231,confess,26,confess,C,NA,default,21,Yes,NA,Female,english,NA,22
1257,default,block1,josh,ai,0.36,7304,suggest,27,suggest,C,NA,default,21,Yes,NA,Female,english,NA,23
1257,default,block1,julian,ai,0.85,16759,pretend,28,pretend,C,NA,default,21,Yes,NA,Female,english,NA,24
1257,default,block1,olivia,ai,0.35,6605,reveal,29,reveal,C,NA,default,21,Yes,NA,Female,english,NA,25
1257,default,block1,kids,ai,0.24,7445,MC,30,MC,MC,NA,default,21,Yes,NA,Female,english,NA,26
1257,default,block2,hat,projective,1,12631,MC,32,MC,MC,NA,default,21,Yes,NA,Female,english,NA,27
1257,default,block2,garage,projective,0.84,9067,MC,33,MC,MC,NA,default,21,Yes,NA,Female,english,NA,28
1257,default,block2,ballet,projective,0.8,4249,MC,34,MC,MC,NA,default,21,Yes,NA,Female,english,NA,29
1257,default,block2,danny,projective,0.49,8861,establish,35,establish,C,NA,default,21,Yes,NA,Female,english,NA,30
1257,default,block2,mary,projective,0.85,7953,inform,36,inform,C,NA,default,21,Yes,NA,Female,english,NA,31
1257,default,block2,mia,projective,0.56,11104,demonstrate,37,demonstrate,C,NA,default,21,Yes,NA,Female,english,NA,32
1257,default,block2,julian,projective,0.07,7332,pretend,38,pretend,C,NA,default,21,Yes,NA,Female,english,NA,33
1257,default,block2,kids,projective,0.88,10781,MC,39,MC,MC,NA,default,21,Yes,NA,Female,english,NA,34
1257,default,block2,charley,projective,0.18,5987,think,40,think,C,NA,default,21,Yes,NA,Female,english,NA,35
1257,default,block2,jackson,projective,0.41,8197,say,41,say,C,NA,default,21,Yes,NA,Female,english,NA,36
1257,default,block2,emily,projective,0.72,8331,hear,42,hear,C,NA,default,21,Yes,NA,Female,english,NA,37
1257,default,block2,owen,projective,0.75,6851,confess,43,confess,C,NA,default,21,Yes,NA,Female,english,NA,38
1257,default,block2,josh,projective,0.48,4083,suggest,44,suggest,C,NA,default,21,Yes,NA,Female,english,NA,39
1257,default,block2,emma,projective,0.43,5183,announce,45,announce,C,NA,default,21,Yes,NA,Female,english,NA,40
1257,default,block2,zoe,projective,0.51,7985,prove,46,prove,C,NA,default,21,Yes,NA,Female,english,NA,41
1257,default,block2,sophia,projective,0.89,7718,acknowledge,47,acknowledge,C,NA,default,21,Yes,NA,Female,english,NA,42
1257,default,block2,grace,projective,0.33,6573,be_right,48,be_right,C,NA,default,21,Yes,NA,Female,english,NA,43
1257,default,block2,jon,projective,0.42,4487,confirm,49,confirm,C,NA,default,21,Yes,NA,Female,english,NA,44
1257,default,block2,muffins,projective,0.97,4038,MC,50,MC,MC,NA,default,21,Yes,NA,Female,english,NA,45
1257,default,block2,isabella,projective,0.61,7600,admit,51,admit,C,NA,default,21,Yes,NA,Female,english,NA,46
1257,default,block2,tony,projective,0.69,6459,know,52,know,C,NA,default,21,Yes,NA,Female,english,NA,47
1257,default,block2,jayden,projective,0.74,4010,see,53,see,C,NA,default,21,Yes,NA,Female,english,NA,48
1257,default,block2,josie,projective,0.83,8458,be_annoyed,54,be_annoyed,C,NA,default,21,Yes,NA,Female,english,NA,49
1257,default,block2,frank,projective,0.78,4486,discover,55,discover,C,NA,default,21,Yes,NA,Female,english,NA,50
1257,default,block2,olivia,projective,0.75,5634,reveal,56,reveal,C,NA,default,21,Yes,NA,Female,english,NA,51
1257,default,block2,pizza,projective,1,5845,MC,57,MC,MC,NA,default,21,Yes,NA,Female,english,NA,52
1250,default,block1,grace,projective,0.71,14144,establish,5,establish,C,NA,default,22,Yes,NA,Female,english,NA,1
1250,default,block1,danny,projective,0.74,9912,confess,6,confess,C,NA,default,22,Yes,NA,Female,english,NA,2
1250,default,block1,charley,projective,0.98,6808,acknowledge,7,acknowledge,C,NA,default,22,Yes,NA,Female,english,NA,3
1250,default,block1,jon,projective,0.2,12767,think,8,think,C,NA,default,22,Yes,NA,Female,english,NA,4
1250,default,block1,josie,projective,0.69,6471,suggest,9,suggest,C,NA,default,22,Yes,NA,Female,english,NA,5
1250,default,block1,kids,projective,0.97,8417,MC,10,MC,MC,NA,default,22,Yes,NA,Female,english,NA,6
1250,default,block1,isabella,projective,0.99,5893,be_annoyed,11,be_annoyed,C,NA,default,22,Yes,NA,Female,english,NA,7
1250,default,block1,mia,projective,0.2,10152,prove,12,prove,C,NA,default,22,Yes,NA,Female,english,NA,8
1250,default,block1,emily,projective,0,6795,pretend,13,pretend,C,NA,default,22,Yes,NA,Female,english,NA,9
1250,default,block1,emma,projective,0.98,11601,know,14,know,C,NA,default,22,Yes,NA,Female,english,NA,10
1250,default,block1,sophia,projective,0.79,7372,confirm,15,confirm,C,NA,default,22,Yes,NA,Female,english,NA,11
1250,default,block1,hat,projective,0.99,6351,MC,16,MC,MC,NA,default,22,Yes,NA,Female,english,NA,12
1250,default,block1,tony,projective,0.2,5536,see,17,see,C,NA,default,22,Yes,NA,Female,english,NA,13
1250,default,block1,zoe,projective,0.97,4359,admit,18,admit,C,NA,default,22,Yes,NA,Female,english,NA,14
1250,default,block1,mary,projective,0.98,5833,inform,19,inform,C,NA,default,22,Yes,NA,Female,english,NA,15
1250,default,block1,olivia,projective,0.98,6769,hear,20,hear,C,NA,default,22,Yes,NA,Female,english,NA,16
1250,default,block1,frank,projective,0.19,10405,be_right,21,be_right,C,NA,default,22,Yes,NA,Female,english,NA,17
1250,default,block1,josh,projective,0.88,6322,demonstrate,22,demonstrate,C,NA,default,22,Yes,NA,Female,english,NA,18
1250,default,block1,ballet,projective,0.99,3978,MC,23,MC,MC,NA,default,22,Yes,NA,Female,english,NA,19
1250,default,block1,julian,projective,0.75,8392,say,24,say,C,NA,default,22,Yes,NA,Female,english,NA,20
1250,default,block1,garage,projective,0.98,3273,MC,25,MC,MC,NA,default,22,Yes,NA,Female,english,NA,21
1250,default,block1,muffins,projective,0.99,4084,MC,26,MC,MC,NA,default,22,Yes,NA,Female,english,NA,22
1250,default,block1,jackson,projective,0.81,4100,reveal,27,reveal,C,NA,default,22,Yes,NA,Female,english,NA,23
1250,default,block1,owen,projective,0.63,11356,announce,28,announce,C,NA,default,22,Yes,NA,Female,english,NA,24
1250,default,block1,jayden,projective,0.98,3726,discover,29,discover,C,NA,default,22,Yes,NA,Female,english,NA,25
1250,default,block1,pizza,projective,0.98,4314,MC,30,MC,MC,NA,default,22,Yes,NA,Female,english,NA,26
1250,default,block2,owen,ai,0.8200000000000001,53779,announce,32,announce,C,NA,default,22,Yes,NA,Female,english,NA,27
1250,default,block2,jon,ai,0.86,5122,think,33,think,C,NA,default,22,Yes,NA,Female,english,NA,28
1250,default,block2,olivia,ai,0.96,6248,hear,34,hear,C,NA,default,22,Yes,NA,Female,english,NA,29
1250,default,block2,charley,ai,0.9,5867,acknowledge,35,acknowledge,C,NA,default,22,Yes,NA,Female,english,NA,30
1250,default,block2,jayden,ai,0.41000000000000003,10120,discover,36,discover,C,NA,default,22,Yes,NA,Female,english,NA,31
1250,default,block2,ballet,ai,0.010000000000000009,3709,MC,37,MC,MC,NA,default,22,Yes,NA,Female,english,NA,32
1250,default,block2,grace,ai,0.78,5649,establish,38,establish,C,NA,default,22,Yes,NA,Female,english,NA,33
1250,default,block2,emma,ai,0.79,6343,know,39,know,C,NA,default,22,Yes,NA,Female,english,NA,34
1250,default,block2,muffins,ai,0.020000000000000018,2923,MC,40,MC,MC,NA,default,22,Yes,NA,Female,english,NA,35
1250,default,block2,isabella,ai,0.87,5933,be_annoyed,41,be_annoyed,C,NA,default,22,Yes,NA,Female,english,NA,36
1250,default,block2,tony,ai,0.51,7189,see,42,see,C,NA,default,22,Yes,NA,Female,english,NA,37
1250,default,block2,josh,ai,0.71,7209,demonstrate,43,demonstrate,C,NA,default,22,Yes,NA,Female,english,NA,38
1250,default,block2,josie,ai,0.45999999999999996,6703,suggest,44,suggest,C,NA,default,22,Yes,NA,Female,english,NA,39
1250,default,block2,hat,ai,0.010000000000000009,3367,MC,45,MC,MC,NA,default,22,Yes,NA,Female,english,NA,40
1250,default,block2,sophia,ai,0.83,5186,confirm,46,confirm,C,NA,default,22,Yes,NA,Female,english,NA,41
1250,default,block2,jackson,ai,0.79,3989,reveal,47,reveal,C,NA,default,22,Yes,NA,Female,english,NA,42
1250,default,block2,emily,ai,0.87,6615,pretend,48,pretend,C,NA,default,22,Yes,NA,Female,english,NA,43
1250,default,block2,julian,ai,0.84,5320,say,49,say,C,NA,default,22,Yes,NA,Female,english,NA,44
1250,default,block2,danny,ai,0.77,7711,confess,50,confess,C,NA,default,22,Yes,NA,Female,english,NA,45
1250,default,block2,frank,ai,0.8200000000000001,3946,be_right,51,be_right,C,NA,default,22,Yes,NA,Female,english,NA,46
1250,default,block2,mary,ai,0.88,5452,inform,52,inform,C,NA,default,22,Yes,NA,Female,english,NA,47
1250,default,block2,mia,ai,0.5900000000000001,5313,prove,53,prove,C,NA,default,22,Yes,NA,Female,english,NA,48
1250,default,block2,zoe,ai,0.62,6580,admit,54,admit,C,NA,default,22,Yes,NA,Female,english,NA,49
1250,default,block2,pizza,ai,0.010000000000000009,3416,MC,55,MC,MC,NA,default,22,Yes,NA,Female,english,NA,50
1250,default,block2,garage,ai,0.010000000000000009,3669,MC,56,MC,MC,NA,default,22,Yes,NA,Female,english,NA,51
1250,default,block2,kids,ai,0.010000000000000009,3404,MC,57,MC,MC,NA,default,22,Yes,NA,Female,english,NA,52
1261,default,block1,mary,ai,1,32891,reveal,5,reveal,C,NA,default,21,Yes,NA,Female,English,NA,1
1261,default,block1,emma,ai,1,20800,suggest,6,suggest,C,NA,default,21,Yes,NA,Female,English,NA,2
1261,default,block1,jackson,ai,1,13732,confess,7,confess,C,NA,default,21,Yes,NA,Female,English,NA,3
1261,default,block1,jon,ai,1,14079,inform,8,inform,C,NA,default,21,Yes,NA,Female,English,NA,4
1261,default,block1,emily,ai,1,16329,confirm,9,confirm,C,NA,default,21,Yes,NA,Female,English,NA,5
1261,default,block1,grace,ai,1,13106,establish,10,establish,C,NA,default,21,Yes,NA,Female,English,NA,6
1261,default,block1,hat,ai,0,16941,MC,11,MC,MC,NA,default,21,Yes,NA,Female,English,NA,7
1261,default,block1,zoe,ai,1,15183,prove,12,prove,C,NA,default,21,Yes,NA,Female,English,NA,8
1261,default,block1,owen,ai,1,17460,discover,13,discover,C,NA,default,21,Yes,NA,Female,English,NA,9
1261,default,block1,danny,ai,1,11248,announce,14,announce,C,NA,default,21,Yes,NA,Female,English,NA,10
1261,default,block1,josie,ai,0.98,11933,say,15,say,C,NA,default,21,Yes,NA,Female,English,NA,11
1261,default,block1,tony,ai,1,11633,know,16,know,C,NA,default,21,Yes,NA,Female,English,NA,12
1261,default,block1,mia,ai,1,16992,be_annoyed,17,be_annoyed,C,NA,default,21,Yes,NA,Female,English,NA,13
1261,default,block1,olivia,ai,1,12479,demonstrate,18,demonstrate,C,NA,default,21,Yes,NA,Female,English,NA,14
1261,default,block1,isabella,ai,1,11031,pretend,19,pretend,C,NA,default,21,Yes,NA,Female,English,NA,15
1261,default,block1,kids,ai,0,12850,MC,20,MC,MC,NA,default,21,Yes,NA,Female,English,NA,16
1261,default,block1,muffins,ai,0.020000000000000018,15938,MC,21,MC,MC,NA,default,21,Yes,NA,Female,English,NA,17
1261,default,block1,garage,ai,0,10541,MC,22,MC,MC,NA,default,21,Yes,NA,Female,English,NA,18
1261,default,block1,sophia,ai,1,12608,acknowledge,23,acknowledge,C,NA,default,21,Yes,NA,Female,English,NA,19
1261,default,block1,ballet,ai,0.010000000000000009,10779,MC,24,MC,MC,NA,default,21,Yes,NA,Female,English,NA,20
1261,default,block1,frank,ai,0.97,8982,think,25,think,C,NA,default,21,Yes,NA,Female,English,NA,21
1261,default,block1,josh,ai,1,11347,be_right,26,be_right,C,NA,default,21,Yes,NA,Female,English,NA,22
1261,default,block1,julian,ai,1,12413,admit,27,admit,C,NA,default,21,Yes,NA,Female,English,NA,23
1261,default,block1,charley,ai,0.98,10694,hear,28,hear,C,NA,default,21,Yes,NA,Female,English,NA,24
1261,default,block1,jayden,ai,1,11970,see,29,see,C,NA,default,21,Yes,NA,Female,English,NA,25
1261,default,block1,pizza,ai,0,10024,MC,30,MC,MC,NA,default,21,Yes,NA,Female,English,NA,26
1261,default,block2,grace,projective,0.14,19828,establish,32,establish,C,NA,default,21,Yes,NA,Female,English,NA,27
1261,default,block2,jayden,projective,0.84,15628,see,33,see,C,NA,default,21,Yes,NA,Female,English,NA,28
1261,default,block2,emma,projective,0.7,12162,suggest,34,suggest,C,NA,default,21,Yes,NA,Female,English,NA,29
1261,default,block2,olivia,projective,0.64,10995,demonstrate,35,demonstrate,C,NA,default,21,Yes,NA,Female,English,NA,30
1261,default,block2,garage,projective,1,8320,MC,36,MC,MC,NA,default,21,Yes,NA,Female,English,NA,31
1261,default,block2,owen,projective,0.83,8534,discover,37,discover,C,NA,default,21,Yes,NA,Female,English,NA,32
1261,default,block2,ballet,projective,1,6657,MC,38,MC,MC,NA,default,21,Yes,NA,Female,English,NA,33
1261,default,block2,frank,projective,0.51,16794,think,39,think,C,NA,default,21,Yes,NA,Female,English,NA,34
1261,default,block2,josh,projective,0.17,11245,be_right,40,be_right,C,NA,default,21,Yes,NA,Female,English,NA,35
