workerid,proliferate.condition.x,block,content,question_type,response,rt,short_trigger,slide_number_in_experiment,trigger,trigger_class,error.x,proliferate.condition.y,age,american,comments,gender,language,error.y,trial
907,default,block1,josh,ai,0.97,30834,be_annoyed,5,be_annoyed,C,NA,default,62,Yes,NA,Female,English,NA,1
907,default,block1,josie,ai,1,15031,reveal,6,reveal,C,NA,default,62,Yes,NA,Female,English,NA,2
907,default,block1,julian,ai,1,22741,admit,7,admit,C,NA,default,62,Yes,NA,Female,English,NA,3
907,default,block1,ballet,ai,0.020000000000000018,21735,MC,8,MC,MC,NA,default,62,Yes,NA,Female,English,NA,4
907,default,block1,jon,ai,0.98,11548,discover,9,discover,C,NA,default,62,Yes,NA,Female,English,NA,5
907,default,block1,jackson,ai,0.99,15144,see,10,see,C,NA,default,62,Yes,NA,Female,English,NA,6
907,default,block1,charley,ai,0.96,9299,prove,11,prove,C,NA,default,62,Yes,NA,Female,English,NA,7
907,default,block1,owen,ai,0.98,14665,be_right,12,be_right,C,NA,default,62,Yes,NA,Female,English,NA,8
907,default,block1,isabella,ai,0.98,10049,acknowledge,13,acknowledge,C,NA,default,62,Yes,NA,Female,English,NA,9
907,default,block1,frank,ai,1,10341,say,14,say,C,NA,default,62,Yes,NA,Female,English,NA,10
907,default,block1,mia,ai,1,12937,demonstrate,15,demonstrate,C,NA,default,62,Yes,NA,Female,English,NA,11
907,default,block1,tony,ai,0.99,37910,think,16,think,C,NA,default,62,Yes,NA,Female,English,NA,12
907,default,block1,hat,ai,0,13076,MC,17,MC,MC,NA,default,62,Yes,NA,Female,English,NA,13
907,default,block1,emily,ai,1,8852,pretend,18,pretend,C,NA,default,62,Yes,NA,Female,English,NA,14
907,default,block1,muffins,ai,0,11028,MC,19,MC,MC,NA,default,62,Yes,NA,Female,English,NA,15
907,default,block1,mary,ai,1,14744,announce,20,announce,C,NA,default,62,Yes,NA,Female,English,NA,16
907,default,block1,olivia,ai,1,10060,hear,21,hear,C,NA,default,62,Yes,NA,Female,English,NA,17
907,default,block1,pizza,ai,0,13417,MC,22,MC,MC,NA,default,62,Yes,NA,Female,English,NA,18
907,default,block1,kids,ai,0,15792,MC,23,MC,MC,NA,default,62,Yes,NA,Female,English,NA,19
907,default,block1,grace,ai,1,9454,know,24,know,C,NA,default,62,Yes,NA,Female,English,NA,20
907,default,block1,sophia,ai,1,9705,inform,25,inform,C,NA,default,62,Yes,NA,Female,English,NA,21
907,default,block1,jayden,ai,1,8652,confirm,26,confirm,C,NA,default,62,Yes,NA,Female,English,NA,22
907,default,block1,emma,ai,1,7811,confess,27,confess,C,NA,default,62,Yes,NA,Female,English,NA,23
907,default,block1,garage,ai,0,11370,MC,28,MC,MC,NA,default,62,Yes,NA,Female,English,NA,24
907,default,block1,zoe,ai,1,8780,suggest,29,suggest,C,NA,default,62,Yes,NA,Female,English,NA,25
907,default,block1,danny,ai,1,6212,establish,30,establish,C,NA,default,62,Yes,NA,Female,English,NA,26
907,default,block2,grace,projective,0.89,15292,know,32,know,C,NA,default,62,Yes,NA,Female,English,NA,27
907,default,block2,pizza,projective,1,8326,MC,33,MC,MC,NA,default,62,Yes,NA,Female,English,NA,28
907,default,block2,sophia,projective,0.54,18190,inform,34,inform,C,NA,default,62,Yes,NA,Female,English,NA,29
907,default,block2,charley,projective,0.73,13770,prove,35,prove,C,NA,default,62,Yes,NA,Female,English,NA,30
907,default,block2,frank,projective,0.54,14067,say,36,say,C,NA,default,62,Yes,NA,Female,English,NA,31
907,default,block2,hat,projective,1,7714,MC,37,MC,MC,NA,default,62,Yes,NA,Female,English,NA,32
907,default,block2,jackson,projective,0.85,14268,see,38,see,C,NA,default,62,Yes,NA,Female,English,NA,33
907,default,block2,emma,projective,0.85,8834,confess,39,confess,C,NA,default,62,Yes,NA,Female,English,NA,34
907,default,block2,isabella,projective,0.66,10242,acknowledge,40,acknowledge,C,NA,default,62,Yes,NA,Female,English,NA,35
907,default,block2,ballet,projective,1,6653,MC,41,MC,MC,NA,default,62,Yes,NA,Female,English,NA,36
907,default,block2,zoe,projective,0.48,11244,suggest,42,suggest,C,NA,default,62,Yes,NA,Female,English,NA,37
907,default,block2,olivia,projective,0.5,8550,hear,43,hear,C,NA,default,62,Yes,NA,Female,English,NA,38
907,default,block2,emily,projective,0.08,13402,pretend,44,pretend,C,NA,default,62,Yes,NA,Female,English,NA,39
907,default,block2,muffins,projective,1,8473,MC,45,MC,MC,NA,default,62,Yes,NA,Female,English,NA,40
907,default,block2,julian,projective,0.81,12627,admit,46,admit,C,NA,default,62,Yes,NA,Female,English,NA,41
907,default,block2,josh,projective,0.92,16802,be_annoyed,47,be_annoyed,C,NA,default,62,Yes,NA,Female,English,NA,42
907,default,block2,mary,projective,0.48,10378,announce,48,announce,C,NA,default,62,Yes,NA,Female,English,NA,43
907,default,block2,tony,projective,0,15831,think,49,think,C,NA,default,62,Yes,NA,Female,English,NA,44
907,default,block2,jon,projective,0.63,11555,discover,50,discover,C,NA,default,62,Yes,NA,Female,English,NA,45
907,default,block2,kids,projective,1,6989,MC,51,MC,MC,NA,default,62,Yes,NA,Female,English,NA,46
907,default,block2,jayden,projective,0.74,13338,confirm,52,confirm,C,NA,default,62,Yes,NA,Female,English,NA,47
907,default,block2,danny,projective,0.85,10569,establish,53,establish,C,NA,default,62,Yes,NA,Female,English,NA,48
907,default,block2,owen,projective,0.08,16519,be_right,54,be_right,C,NA,default,62,Yes,NA,Female,English,NA,49
907,default,block2,mia,projective,0.05,10347,demonstrate,55,demonstrate,C,NA,default,62,Yes,NA,Female,English,NA,50
907,default,block2,josie,projective,0.63,9818,reveal,56,reveal,C,NA,default,62,Yes,NA,Female,English,NA,51
907,default,block2,garage,projective,1,7980,MC,57,MC,MC,NA,default,62,Yes,NA,Female,English,NA,52
758,default,block1,jackson,projective,0.07,8639,be_annoyed,5,be_annoyed,C,NA,default,27,Yes,NA,Female,"English, Korean",NA,1
758,default,block1,charley,projective,0.08,6364,say,6,say,C,NA,default,27,Yes,NA,Female,"English, Korean",NA,2
758,default,block1,pizza,projective,1,4728,MC,7,MC,MC,NA,default,27,Yes,NA,Female,"English, Korean",NA,3
758,default,block1,jon,projective,0.09,6853,suggest,8,suggest,C,NA,default,27,Yes,NA,Female,"English, Korean",NA,4
758,default,block1,danny,projective,0.71,9168,announce,9,announce,C,NA,default,27,Yes,NA,Female,"English, Korean",NA,5
758,default,block1,isabella,projective,0.08,4711,confirm,10,confirm,C,NA,default,27,Yes,NA,Female,"English, Korean",NA,6
758,default,block1,mary,projective,0.16,4262,prove,11,prove,C,NA,default,27,Yes,NA,Female,"English, Korean",NA,7
758,default,block1,grace,projective,0.08,4822,pretend,12,pretend,C,NA,default,27,Yes,NA,Female,"English, Korean",NA,8
758,default,block1,josie,projective,0.96,6001,hear,13,hear,C,NA,default,27,Yes,NA,Female,"English, Korean",NA,9
758,default,block1,muffins,projective,1,2876,MC,14,MC,MC,NA,default,27,Yes,NA,Female,"English, Korean",NA,10
758,default,block1,josh,projective,0.94,4174,confess,15,confess,C,NA,default,27,Yes,NA,Female,"English, Korean",NA,11
758,default,block1,emma,projective,0.9,3876,discover,16,discover,C,NA,default,27,Yes,NA,Female,"English, Korean",NA,12
758,default,block1,garage,projective,0.97,4030,MC,17,MC,MC,NA,default,27,Yes,NA,Female,"English, Korean",NA,13
758,default,block1,julian,projective,0.92,4672,see,18,see,C,NA,default,27,Yes,NA,Female,"English, Korean",NA,14
758,default,block1,hat,projective,1,2868,MC,19,MC,MC,NA,default,27,Yes,NA,Female,"English, Korean",NA,15
758,default,block1,jayden,projective,0.97,4791,reveal,20,reveal,C,NA,default,27,Yes,NA,Female,"English, Korean",NA,16
758,default,block1,ballet,projective,0.99,3285,MC,21,MC,MC,NA,default,27,Yes,NA,Female,"English, Korean",NA,17
758,default,block1,owen,projective,0.1,4720,be_right,22,be_right,C,NA,default,27,Yes,NA,Female,"English, Korean",NA,18
758,default,block1,frank,projective,0.75,5041,admit,23,admit,C,NA,default,27,Yes,NA,Female,"English, Korean",NA,19
758,default,block1,zoe,projective,0.88,5777,acknowledge,24,acknowledge,C,NA,default,27,Yes,NA,Female,"English, Korean",NA,20
758,default,block1,emily,projective,0.39,9385,think,25,think,C,NA,default,27,Yes,NA,Female,"English, Korean",NA,21
758,default,block1,sophia,projective,0.51,5816,demonstrate,26,demonstrate,C,NA,default,27,Yes,NA,Female,"English, Korean",NA,22
758,default,block1,kids,projective,1,2481,MC,27,MC,MC,NA,default,27,Yes,NA,Female,"English, Korean",NA,23
758,default,block1,tony,projective,0.64,5380,establish,28,establish,C,NA,default,27,Yes,NA,Female,"English, Korean",NA,24
758,default,block1,mia,projective,0.96,3397,know,29,know,C,NA,default,27,Yes,NA,Female,"English, Korean",NA,25
758,default,block1,olivia,projective,0.98,6626,inform,30,inform,C,NA,default,27,Yes,NA,Female,"English, Korean",NA,26
758,default,block2,jon,ai,1,10696,suggest,32,suggest,C,NA,default,27,Yes,NA,Female,"English, Korean",NA,27
758,default,block2,emma,ai,1,6588,discover,33,discover,C,NA,default,27,Yes,NA,Female,"English, Korean",NA,28
758,default,block2,olivia,ai,1,6080,inform,34,inform,C,NA,default,27,Yes,NA,Female,"English, Korean",NA,29
758,default,block2,julian,ai,1,5745,see,35,see,C,NA,default,27,Yes,NA,Female,"English, Korean",NA,30
758,default,block2,josh,ai,1,8231,confess,36,confess,C,NA,default,27,Yes,NA,Female,"English, Korean",NA,31
758,default,block2,frank,ai,1,3854,admit,37,admit,C,NA,default,27,Yes,NA,Female,"English, Korean",NA,32
758,default,block2,owen,ai,1,5766,be_right,38,be_right,C,NA,default,27,Yes,NA,Female,"English, Korean",NA,33
758,default,block2,muffins,ai,0,4168,MC,39,MC,MC,NA,default,27,Yes,NA,Female,"English, Korean",NA,34
758,default,block2,josie,ai,1,4246,hear,40,hear,C,NA,default,27,Yes,NA,Female,"English, Korean",NA,35
758,default,block2,jayden,ai,1,3276,reveal,41,reveal,C,NA,default,27,Yes,NA,Female,"English, Korean",NA,36
758,default,block2,emily,ai,1,3572,think,42,think,C,NA,default,27,Yes,NA,Female,"English, Korean",NA,37
758,default,block2,tony,ai,0.97,4126,establish,43,establish,C,NA,default,27,Yes,NA,Female,"English, Korean",NA,38
758,default,block2,garage,ai,0,2764,MC,44,MC,MC,NA,default,27,Yes,NA,Female,"English, Korean",NA,39
758,default,block2,sophia,ai,1,2667,demonstrate,45,demonstrate,C,NA,default,27,Yes,NA,Female,"English, Korean",NA,40
758,default,block2,isabella,ai,1,2723,confirm,46,confirm,C,NA,default,27,Yes,NA,Female,"English, Korean",NA,41
758,default,block2,charley,ai,1,2460,say,47,say,C,NA,default,27,Yes,NA,Female,"English, Korean",NA,42
758,default,block2,pizza,ai,0,3476,MC,48,MC,MC,NA,default,27,Yes,NA,Female,"English, Korean",NA,43
758,default,block2,mary,ai,1,3454,prove,49,prove,C,NA,default,27,Yes,NA,Female,"English, Korean",NA,44
758,default,block2,zoe,ai,1,3004,acknowledge,50,acknowledge,C,NA,default,27,Yes,NA,Female,"English, Korean",NA,45
758,default,block2,grace,ai,0.99,2916,pretend,51,pretend,C,NA,default,27,Yes,NA,Female,"English, Korean",NA,46
758,default,block2,danny,ai,1,2298,announce,52,announce,C,NA,default,27,Yes,NA,Female,"English, Korean",NA,47
758,default,block2,kids,ai,0,3219,MC,53,MC,MC,NA,default,27,Yes,NA,Female,"English, Korean",NA,48
758,default,block2,jackson,ai,1,3084,be_annoyed,54,be_annoyed,C,NA,default,27,Yes,NA,Female,"English, Korean",NA,49
758,default,block2,ballet,ai,0,2596,MC,55,MC,MC,NA,default,27,Yes,NA,Female,"English, Korean",NA,50
758,default,block2,mia,ai,1,2916,know,56,know,C,NA,default,27,Yes,NA,Female,"English, Korean",NA,51
758,default,block2,hat,ai,0,3703,MC,57,MC,MC,NA,default,27,Yes,NA,Female,"English, Korean",NA,52
1020,default,block1,jackson,projective,0.01,11715,hear,5,hear,C,NA,default,49,Yes,The subtle differences in phrasing was interesting.,Female,English,NA,1
1020,default,block1,tony,projective,0.2,15418,announce,6,announce,C,NA,default,49,Yes,The subtle differences in phrasing was interesting.,Female,English,NA,2
1020,default,block1,frank,projective,0.02,14176,pretend,7,pretend,C,NA,default,49,Yes,The subtle differences in phrasing was interesting.,Female,English,NA,3
1020,default,block1,jayden,projective,0.02,13498,suggest,8,suggest,C,NA,default,49,Yes,The subtle differences in phrasing was interesting.,Female,English,NA,4
1020,default,block1,ballet,projective,0.99,19422,MC,9,MC,MC,NA,default,49,Yes,The subtle differences in phrasing was interesting.,Female,English,NA,5
1020,default,block1,mary,projective,0.49,17720,confess,10,confess,C,NA,default,49,Yes,The subtle differences in phrasing was interesting.,Female,English,NA,6
1020,default,block1,emma,projective,0.02,15559,be_right,11,be_right,C,NA,default,49,Yes,The subtle differences in phrasing was interesting.,Female,English,NA,7
1020,default,block1,josie,projective,0.76,10047,reveal,12,reveal,C,NA,default,49,Yes,The subtle differences in phrasing was interesting.,Female,English,NA,8
1020,default,block1,charley,projective,0.97,12179,know,13,know,C,NA,default,49,Yes,The subtle differences in phrasing was interesting.,Female,English,NA,9
1020,default,block1,josh,projective,0.98,10899,admit,14,admit,C,NA,default,49,Yes,The subtle differences in phrasing was interesting.,Female,English,NA,10
1020,default,block1,sophia,projective,0.69,9504,discover,15,discover,C,NA,default,49,Yes,The subtle differences in phrasing was interesting.,Female,English,NA,11
1020,default,block1,grace,projective,0.27,24810,confirm,16,confirm,C,NA,default,49,Yes,The subtle differences in phrasing was interesting.,Female,English,NA,12
1020,default,block1,jon,projective,0.59,16018,be_annoyed,17,be_annoyed,C,NA,default,49,Yes,The subtle differences in phrasing was interesting.,Female,English,NA,13
1020,default,block1,olivia,projective,0.12,9818,establish,18,establish,C,NA,default,49,Yes,The subtle differences in phrasing was interesting.,Female,English,NA,14
1020,default,block1,mia,projective,0.64,24182,acknowledge,19,acknowledge,C,NA,default,49,Yes,The subtle differences in phrasing was interesting.,Female,English,NA,15
1020,default,block1,zoe,projective,0.91,9648,prove,20,prove,C,NA,default,49,Yes,The subtle differences in phrasing was interesting.,Female,English,NA,16
1020,default,block1,danny,projective,0.36,10912,see,21,see,C,NA,default,49,Yes,The subtle differences in phrasing was interesting.,Female,English,NA,17
1020,default,block1,pizza,projective,0.99,8952,MC,22,MC,MC,NA,default,49,Yes,The subtle differences in phrasing was interesting.,Female,English,NA,18
1020,default,block1,muffins,projective,0.98,7135,MC,23,MC,MC,NA,default,49,Yes,The subtle differences in phrasing was interesting.,Female,English,NA,19
1020,default,block1,garage,projective,0.98,10720,MC,24,MC,MC,NA,default,49,Yes,The subtle differences in phrasing was interesting.,Female,English,NA,20
1020,default,block1,julian,projective,0.88,10095,inform,25,inform,C,NA,default,49,Yes,The subtle differences in phrasing was interesting.,Female,English,NA,21
1020,default,block1,owen,projective,0.95,12335,demonstrate,26,demonstrate,C,NA,default,49,Yes,The subtle differences in phrasing was interesting.,Female,English,NA,22
1020,default,block1,isabella,projective,0.48,7393,say,27,say,C,NA,default,49,Yes,The subtle differences in phrasing was interesting.,Female,English,NA,23
1020,default,block1,kids,projective,0.99,7622,MC,28,MC,MC,NA,default,49,Yes,The subtle differences in phrasing was interesting.,Female,English,NA,24
1020,default,block1,emily,projective,0.29,13242,think,29,think,C,NA,default,49,Yes,The subtle differences in phrasing was interesting.,Female,English,NA,25
1020,default,block1,hat,projective,0.98,6834,MC,30,MC,MC,NA,default,49,Yes,The subtle differences in phrasing was interesting.,Female,English,NA,26
1020,default,block2,isabella,ai,0.52,20631,say,32,say,C,NA,default,49,Yes,The subtle differences in phrasing was interesting.,Female,English,NA,27
1020,default,block2,jackson,ai,0.16000000000000003,15063,hear,33,hear,C,NA,default,49,Yes,The subtle differences in phrasing was interesting.,Female,English,NA,28
1020,default,block2,danny,ai,0.5,10722,see,34,see,C,NA,default,49,Yes,The subtle differences in phrasing was interesting.,Female,English,NA,29
1020,default,block2,zoe,ai,0.61,10096,prove,35,prove,C,NA,default,49,Yes,The subtle differences in phrasing was interesting.,Female,English,NA,30
1020,default,block2,charley,ai,0.75,13135,know,36,know,C,NA,default,49,Yes,The subtle differences in phrasing was interesting.,Female,English,NA,31
1020,default,block2,muffins,ai,0.9299999999999999,12571,MC,37,MC,MC,NA,default,49,Yes,The subtle differences in phrasing was interesting.,Female,English,NA,32
1020,default,block2,hat,ai,0.010000000000000009,10951,MC,38,MC,MC,NA,default,49,Yes,The subtle differences in phrasing was interesting.,Female,English,NA,33
1020,default,block2,ballet,ai,0,9180,MC,39,MC,MC,NA,default,49,Yes,The subtle differences in phrasing was interesting.,Female,English,NA,34
1020,default,block2,owen,ai,0.6699999999999999,11060,demonstrate,40,demonstrate,C,NA,default,49,Yes,The subtle differences in phrasing was interesting.,Female,English,NA,35
1020,default,block2,emma,ai,0.87,94960,be_right,41,be_right,C,NA,default,49,Yes,The subtle differences in phrasing was interesting.,Female,English,NA,36
1020,default,block2,jon,ai,0.79,10092,be_annoyed,42,be_annoyed,C,NA,default,49,Yes,The subtle differences in phrasing was interesting.,Female,English,NA,37
1020,default,block2,josie,ai,0.81,8940,reveal,43,reveal,C,NA,default,49,Yes,The subtle differences in phrasing was interesting.,Female,English,NA,38
1020,default,block2,kids,ai,0.030000000000000027,6795,MC,44,MC,MC,NA,default,49,Yes,The subtle differences in phrasing was interesting.,Female,English,NA,39
1020,default,block2,grace,ai,0.96,9590,confirm,45,confirm,C,NA,default,49,Yes,The subtle differences in phrasing was interesting.,Female,English,NA,40
1020,default,block2,jayden,ai,0.89,8517,suggest,46,suggest,C,NA,default,49,Yes,The subtle differences in phrasing was interesting.,Female,English,NA,41
1020,default,block2,olivia,ai,0.91,9574,establish,47,establish,C,NA,default,49,Yes,The subtle differences in phrasing was interesting.,Female,English,NA,42
1020,default,block2,tony,ai,0.9299999999999999,7354,announce,48,announce,C,NA,default,49,Yes,The subtle differences in phrasing was interesting.,Female,English,NA,43
1020,default,block2,garage,ai,0.010000000000000009,9788,MC,49,MC,MC,NA,default,49,Yes,The subtle differences in phrasing was interesting.,Female,English,NA,44
1020,default,block2,mia,ai,0.97,8840,acknowledge,50,acknowledge,C,NA,default,49,Yes,The subtle differences in phrasing was interesting.,Female,English,NA,45
1020,default,block2,josh,ai,0.94,12034,admit,51,admit,C,NA,default,49,Yes,The subtle differences in phrasing was interesting.,Female,English,NA,46
1020,default,block2,pizza,ai,0.010000000000000009,6331,MC,52,MC,MC,NA,default,49,Yes,The subtle differences in phrasing was interesting.,Female,English,NA,47
1020,default,block2,sophia,ai,0.99,6961,discover,53,discover,C,NA,default,49,Yes,The subtle differences in phrasing was interesting.,Female,English,NA,48
1020,default,block2,emily,ai,0.98,12165,think,54,think,C,NA,default,49,Yes,The subtle differences in phrasing was interesting.,Female,English,NA,49
1020,default,block2,frank,ai,0.98,11595,pretend,55,pretend,C,NA,default,49,Yes,The subtle differences in phrasing was interesting.,Female,English,NA,50
1020,default,block2,mary,ai,0.98,21349,confess,56,confess,C,NA,default,49,Yes,The subtle differences in phrasing was interesting.,Female,English,NA,51
1020,default,block2,julian,ai,0.99,7592,inform,57,inform,C,NA,default,49,Yes,The subtle differences in phrasing was interesting.,Female,English,NA,52
731,default,block1,owen,projective,0.64,15613,demonstrate,5,demonstrate,C,NA,default,26,Yes,NA,Female,English,NA,1
731,default,block1,kids,projective,1,6841,MC,6,MC,MC,NA,default,26,Yes,NA,Female,English,NA,2
731,default,block1,josie,projective,0.34,14940,say,7,say,C,NA,default,26,Yes,NA,Female,English,NA,3
731,default,block1,pizza,projective,1,4598,MC,8,MC,MC,NA,default,26,Yes,NA,Female,English,NA,4
731,default,block1,danny,projective,0.83,12004,inform,9,inform,C,NA,default,26,Yes,NA,Female,English,NA,5
731,default,block1,emily,projective,0.9,4659,confess,10,confess,C,NA,default,26,Yes,NA,Female,English,NA,6
731,default,block1,jackson,projective,0.14,7903,prove,11,prove,C,NA,default,26,Yes,NA,Female,English,NA,7
731,default,block1,julian,projective,0.81,6078,discover,12,discover,C,NA,default,26,Yes,NA,Female,English,NA,8
731,default,block1,olivia,projective,0.29,7978,think,13,think,C,NA,default,26,Yes,NA,Female,English,NA,9
731,default,block1,garage,projective,1,4811,MC,14,MC,MC,NA,default,26,Yes,NA,Female,English,NA,10
731,default,block1,charley,projective,0.57,8465,establish,15,establish,C,NA,default,26,Yes,NA,Female,English,NA,11
731,default,block1,isabella,projective,1,5322,see,16,see,C,NA,default,26,Yes,NA,Female,English,NA,12
731,default,block1,jon,projective,0.11,4734,confirm,17,confirm,C,NA,default,26,Yes,NA,Female,English,NA,13
731,default,block1,emma,projective,0.34,6325,admit,18,admit,C,NA,default,26,Yes,NA,Female,English,NA,14
731,default,block1,mary,projective,0.14,7702,pretend,19,pretend,C,NA,default,26,Yes,NA,Female,English,NA,15
731,default,block1,tony,projective,0.12,7052,be_right,20,be_right,C,NA,default,26,Yes,NA,Female,English,NA,16
731,default,block1,sophia,projective,0.74,4963,be_annoyed,21,be_annoyed,C,NA,default,26,Yes,NA,Female,English,NA,17
731,default,block1,hat,projective,1,6212,MC,22,MC,MC,NA,default,26,Yes,NA,Female,English,NA,18
731,default,block1,mia,projective,0.15,6441,suggest,23,suggest,C,NA,default,26,Yes,NA,Female,English,NA,19
731,default,block1,zoe,projective,0.78,4127,know,24,know,C,NA,default,26,Yes,NA,Female,English,NA,20
731,default,block1,ballet,projective,1,3607,MC,25,MC,MC,NA,default,26,Yes,NA,Female,English,NA,21
731,default,block1,josh,projective,1,9590,announce,26,announce,C,NA,default,26,Yes,NA,Female,English,NA,22
731,default,block1,jayden,projective,0.79,8910,hear,27,hear,C,NA,default,26,Yes,NA,Female,English,NA,23
731,default,block1,grace,projective,0.79,6834,reveal,28,reveal,C,NA,default,26,Yes,NA,Female,English,NA,24
731,default,block1,frank,projective,0.55,6015,acknowledge,29,acknowledge,C,NA,default,26,Yes,NA,Female,English,NA,25
731,default,block1,muffins,projective,1,4686,MC,30,MC,MC,NA,default,26,Yes,NA,Female,English,NA,26
731,default,block2,pizza,ai,0,5598,MC,32,MC,MC,NA,default,26,Yes,NA,Female,English,NA,27
731,default,block2,danny,ai,0.73,16136,inform,33,inform,C,NA,default,26,Yes,NA,Female,English,NA,28
731,default,block2,mary,ai,0.65,11779,pretend,34,pretend,C,NA,default,26,Yes,NA,Female,English,NA,29
731,default,block2,kids,ai,0,9195,MC,35,MC,MC,NA,default,26,Yes,NA,Female,English,NA,30
731,default,block2,muffins,ai,0,5065,MC,36,MC,MC,NA,default,26,Yes,NA,Female,English,NA,31
731,default,block2,jayden,ai,0.24,9454,hear,37,hear,C,NA,default,26,Yes,NA,Female,English,NA,32
731,default,block2,grace,ai,0.28,9733,reveal,38,reveal,C,NA,default,26,Yes,NA,Female,English,NA,33
731,default,block2,jon,ai,0.6599999999999999,9283,confirm,39,confirm,C,NA,default,26,Yes,NA,Female,English,NA,34
731,default,block2,jackson,ai,0.53,7193,prove,40,prove,C,NA,default,26,Yes,NA,Female,English,NA,35
731,default,block2,mia,ai,0.65,6037,suggest,41,suggest,C,NA,default,26,Yes,NA,Female,English,NA,36
731,default,block2,owen,ai,0.54,5266,demonstrate,42,demonstrate,C,NA,default,26,Yes,NA,Female,English,NA,37
731,default,block2,josh,ai,0.21999999999999997,9164,announce,43,announce,C,NA,default,26,Yes,NA,Female,English,NA,38
731,default,block2,frank,ai,0.49,10636,acknowledge,44,acknowledge,C,NA,default,26,Yes,NA,Female,English,NA,39
731,default,block2,tony,ai,0.7,5188,be_right,45,be_right,C,NA,default,26,Yes,NA,Female,English,NA,40
731,default,block2,garage,ai,0,5757,MC,46,MC,MC,NA,default,26,Yes,NA,Female,English,NA,41
731,default,block2,olivia,ai,0.48,6404,think,47,think,C,NA,default,26,Yes,NA,Female,English,NA,42
731,default,block2,charley,ai,0.43999999999999995,6456,establish,48,establish,C,NA,default,26,Yes,NA,Female,English,NA,43
731,default,block2,zoe,ai,0.17000000000000004,6481,know,49,know,C,NA,default,26,Yes,NA,Female,English,NA,44
731,default,block2,hat,ai,0,4723,MC,50,MC,MC,NA,default,26,Yes,NA,Female,English,NA,45
731,default,block2,ballet,ai,0,2816,MC,51,MC,MC,NA,default,26,Yes,NA,Female,English,NA,46
731,default,block2,julian,ai,0.18999999999999995,4718,discover,52,discover,C,NA,default,26,Yes,NA,Female,English,NA,47
731,default,block2,emma,ai,0.36,4231,admit,53,admit,C,NA,default,26,Yes,NA,Female,English,NA,48
731,default,block2,sophia,ai,0.19999999999999996,6785,be_annoyed,54,be_annoyed,C,NA,default,26,Yes,NA,Female,English,NA,49
731,default,block2,isabella,ai,0.06000000000000005,5730,see,55,see,C,NA,default,26,Yes,NA,Female,English,NA,50
731,default,block2,emily,ai,0.030000000000000027,3208,confess,56,confess,C,NA,default,26,Yes,NA,Female,English,NA,51
731,default,block2,josie,ai,0.5,5140,say,57,say,C,NA,default,26,Yes,NA,Female,English,NA,52
977,default,block1,mary,projective,0.96,14352,know,5,know,C,NA,default,39,Yes,NA,Female,English,NA,1
977,default,block1,danny,projective,1,23634,announce,6,announce,C,NA,default,39,Yes,NA,Female,English,NA,2
977,default,block1,pizza,projective,0.96,113835,MC,7,MC,MC,NA,default,39,Yes,NA,Female,English,NA,3
977,default,block1,olivia,projective,0.98,12221,inform,8,inform,C,NA,default,39,Yes,NA,Female,English,NA,4
977,default,block1,kids,projective,0.98,5821,MC,9,MC,MC,NA,default,39,Yes,NA,Female,English,NA,5
977,default,block1,sophia,projective,0.96,7647,confess,10,confess,C,NA,default,39,Yes,NA,Female,English,NA,6
977,default,block1,josh,projective,0.97,653228,hear,11,hear,C,NA,default,39,Yes,NA,Female,English,NA,7
977,default,block1,jackson,projective,0.96,6993,acknowledge,12,acknowledge,C,NA,default,39,Yes,NA,Female,English,NA,8
977,default,block1,grace,projective,1,5240,be_right,13,be_right,C,NA,default,39,Yes,NA,Female,English,NA,9
977,default,block1,frank,projective,0.97,7515,admit,14,admit,C,NA,default,39,Yes,NA,Female,English,NA,10
977,default,block1,mia,projective,1,8458,be_annoyed,15,be_annoyed,C,NA,default,39,Yes,NA,Female,English,NA,11
977,default,block1,jon,projective,0.95,8679,pretend,16,pretend,C,NA,default,39,Yes,NA,Female,English,NA,12
977,default,block1,julian,projective,1,8689,confirm,17,confirm,C,NA,default,39,Yes,NA,Female,English,NA,13
977,default,block1,garage,projective,1,9380,MC,18,MC,MC,NA,default,39,Yes,NA,Female,English,NA,14
977,default,block1,zoe,projective,0.96,8108,discover,19,discover,C,NA,default,39,Yes,NA,Female,English,NA,15
977,default,block1,hat,projective,0.95,42975,MC,20,MC,MC,NA,default,39,Yes,NA,Female,English,NA,16
977,default,block1,jayden,projective,0.96,5410,reveal,21,reveal,C,NA,default,39,Yes,NA,Female,English,NA,17
977,default,block1,charley,projective,1,4319,suggest,22,suggest,C,NA,default,39,Yes,NA,Female,English,NA,18
977,default,block1,josie,projective,0.55,20320,see,23,see,C,NA,default,39,Yes,NA,Female,English,NA,19
977,default,block1,muffins,projective,0.98,6268,MC,24,MC,MC,NA,default,39,Yes,NA,Female,English,NA,20
977,default,block1,emily,projective,0.99,6269,say,25,say,C,NA,default,39,Yes,NA,Female,English,NA,21
977,default,block1,tony,projective,0.87,5808,establish,26,establish,C,NA,default,39,Yes,NA,Female,English,NA,22
977,default,block1,owen,projective,0.55,33242,demonstrate,27,demonstrate,C,NA,default,39,Yes,NA,Female,English,NA,23
977,default,block1,emma,projective,0.83,123210,think,28,think,C,NA,default,39,Yes,NA,Female,English,NA,24
977,default,block1,isabella,projective,1,4211,prove,29,prove,C,NA,default,39,Yes,NA,Female,English,NA,25
977,default,block1,ballet,projective,0.96,5033,MC,30,MC,MC,NA,default,39,Yes,NA,Female,English,NA,26
977,default,block2,owen,ai,0.92,15159,demonstrate,32,demonstrate,C,NA,default,39,Yes,NA,Female,English,NA,27
977,default,block2,zoe,ai,0.95,13199,discover,33,discover,C,NA,default,39,Yes,NA,Female,English,NA,28
977,default,block2,danny,ai,0.9299999999999999,14398,announce,34,announce,C,NA,default,39,Yes,NA,Female,English,NA,29
977,default,block2,emily,ai,0.43999999999999995,22357,say,35,say,C,NA,default,39,Yes,NA,Female,English,NA,30
977,default,block2,mia,ai,0.89,48042,be_annoyed,36,be_annoyed,C,NA,default,39,Yes,NA,Female,English,NA,31
977,default,block2,hat,ai,0.050000000000000044,9981,MC,37,MC,MC,NA,default,39,Yes,NA,Female,English,NA,32
977,default,block2,tony,ai,0.95,5952,establish,38,establish,C,NA,default,39,Yes,NA,Female,English,NA,33
977,default,block2,kids,ai,0.010000000000000009,14698,MC,39,MC,MC,NA,default,39,Yes,NA,Female,English,NA,34
977,default,block2,olivia,ai,0.9299999999999999,4645,inform,40,inform,C,NA,default,39,Yes,NA,Female,English,NA,35
977,default,block2,jayden,ai,1,6182,reveal,41,reveal,C,NA,default,39,Yes,NA,Female,English,NA,36
977,default,block2,garage,ai,0.020000000000000018,5893,MC,42,MC,MC,NA,default,39,Yes,NA,Female,English,NA,37
977,default,block2,josh,ai,0.91,10187,hear,43,hear,C,NA,default,39,Yes,NA,Female,English,NA,38
977,default,block2,emma,ai,0.94,4744,think,44,think,C,NA,default,39,Yes,NA,Female,English,NA,39
977,default,block2,muffins,ai,0.020000000000000018,5602,MC,45,MC,MC,NA,default,39,Yes,NA,Female,English,NA,40
977,default,block2,josie,ai,0.94,3714,see,46,see,C,NA,default,39,Yes,NA,Female,English,NA,41
977,default,block2,jon,ai,0.95,5965,pretend,47,pretend,C,NA,default,39,Yes,NA,Female,English,NA,42
977,default,block2,jackson,ai,0.96,3811,acknowledge,48,acknowledge,C,NA,default,39,Yes,NA,Female,English,NA,43
977,default,block2,pizza,ai,0.050000000000000044,6231,MC,49,MC,MC,NA,default,39,Yes,NA,Female,English,NA,44
977,default,block2,sophia,ai,0.95,3945,confess,50,confess,C,NA,default,39,Yes,NA,Female,English,NA,45
977,default,block2,julian,ai,0.88,4754,confirm,51,confirm,C,NA,default,39,Yes,NA,Female,English,NA,46
977,default,block2,ballet,ai,0.010000000000000009,5298,MC,52,MC,MC,NA,default,39,Yes,NA,Female,English,NA,47
977,default,block2,isabella,ai,0.89,10622,prove,53,prove,C,NA,default,39,Yes,NA,Female,English,NA,48
977,default,block2,grace,ai,0.92,3811,be_right,54,be_right,C,NA,default,39,Yes,NA,Female,English,NA,49
977,default,block2,charley,ai,0.92,4005,suggest,55,suggest,C,NA,default,39,Yes,NA,Female,English,NA,50
977,default,block2,frank,ai,1,6074,admit,56,admit,C,NA,default,39,Yes,NA,Female,English,NA,51
977,default,block2,mary,ai,0.99,4330,know,57,know,C,NA,default,39,Yes,NA,Female,English,NA,52
706,default,block1,owen,ai,0.92,25926,see,5,see,C,NA,default,30,Yes,"As an English major, I'm really curious about the outcome of this survey!",Female,English,NA,1
706,default,block1,pizza,ai,0.06000000000000005,4283,MC,6,MC,MC,NA,default,30,Yes,"As an English major, I'm really curious about the outcome of this survey!",Female,English,NA,2
706,default,block1,jayden,ai,0.91,10507,be_right,7,be_right,C,NA,default,30,Yes,"As an English major, I'm really curious about the outcome of this survey!",Female,English,NA,3
706,default,block1,julian,ai,0.85,10427,demonstrate,8,demonstrate,C,NA,default,30,Yes,"As an English major, I'm really curious about the outcome of this survey!",Female,English,NA,4
706,default,block1,josie,ai,0.89,6522,establish,9,establish,C,NA,default,30,Yes,"As an English major, I'm really curious about the outcome of this survey!",Female,English,NA,5
706,default,block1,zoe,ai,0.88,9944,pretend,10,pretend,C,NA,default,30,Yes,"As an English major, I'm really curious about the outcome of this survey!",Female,English,NA,6
706,default,block1,josh,ai,0.88,8537,confess,11,confess,C,NA,default,30,Yes,"As an English major, I'm really curious about the outcome of this survey!",Female,English,NA,7
706,default,block1,mary,ai,0.6799999999999999,5825,confirm,12,confirm,C,NA,default,30,Yes,"As an English major, I'm really curious about the outcome of this survey!",Female,English,NA,8
706,default,block1,jackson,ai,0.9299999999999999,6481,hear,13,hear,C,NA,default,30,Yes,"As an English major, I'm really curious about the outcome of this survey!",Female,English,NA,9
706,default,block1,emily,ai,0.83,8207,acknowledge,14,acknowledge,C,NA,default,30,Yes,"As an English major, I'm really curious about the outcome of this survey!",Female,English,NA,10
706,default,block1,tony,ai,0.92,5728,say,15,say,C,NA,default,30,Yes,"As an English major, I'm really curious about the outcome of this survey!",Female,English,NA,11
706,default,block1,sophia,ai,0.81,9407,reveal,16,reveal,C,NA,default,30,Yes,"As an English major, I'm really curious about the outcome of this survey!",Female,English,NA,12
706,default,block1,kids,ai,0.030000000000000027,9755,MC,17,MC,MC,NA,default,30,Yes,"As an English major, I'm really curious about the outcome of this survey!",Female,English,NA,13
706,default,block1,garage,ai,0.10999999999999999,8816,MC,18,MC,MC,NA,default,30,Yes,"As an English major, I'm really curious about the outcome of this survey!",Female,English,NA,14
706,default,block1,olivia,ai,0.9,6086,know,19,know,C,NA,default,30,Yes,"As an English major, I'm really curious about the outcome of this survey!",Female,English,NA,15
706,default,block1,frank,ai,0.87,5684,admit,20,admit,C,NA,default,30,Yes,"As an English major, I'm really curious about the outcome of this survey!",Female,English,NA,16
706,default,block1,danny,ai,0.9,6496,think,21,think,C,NA,default,30,Yes,"As an English major, I'm really curious about the outcome of this survey!",Female,English,NA,17
706,default,block1,muffins,ai,0.020000000000000018,4332,MC,22,MC,MC,NA,default,30,Yes,"As an English major, I'm really curious about the outcome of this survey!",Female,English,NA,18
706,default,block1,hat,ai,0.020000000000000018,5698,MC,23,MC,MC,NA,default,30,Yes,"As an English major, I'm really curious about the outcome of this survey!",Female,English,NA,19
706,default,block1,grace,ai,0.88,9582,be_annoyed,24,be_annoyed,C,NA,default,30,Yes,"As an English major, I'm really curious about the outcome of this survey!",Female,English,NA,20
706,default,block1,mia,ai,0.63,9329,discover,25,discover,C,NA,default,30,Yes,"As an English major, I'm really curious about the outcome of this survey!",Female,English,NA,21
706,default,block1,ballet,ai,0.020000000000000018,4896,MC,26,MC,MC,NA,default,30,Yes,"As an English major, I'm really curious about the outcome of this survey!",Female,English,NA,22
706,default,block1,isabella,ai,0.74,10636,announce,27,announce,C,NA,default,30,Yes,"As an English major, I'm really curious about the outcome of this survey!",Female,English,NA,23
706,default,block1,emma,ai,0.88,5688,prove,28,prove,C,NA,default,30,Yes,"As an English major, I'm really curious about the outcome of this survey!",Female,English,NA,24
706,default,block1,charley,ai,0.51,9182,suggest,29,suggest,C,NA,default,30,Yes,"As an English major, I'm really curious about the outcome of this survey!",Female,English,NA,25
706,default,block1,jon,ai,0.86,6829,inform,30,inform,C,NA,default,30,Yes,"As an English major, I'm really curious about the outcome of this survey!",Female,English,NA,26
706,default,block2,tony,projective,0.18,12144,say,32,say,C,NA,default,30,Yes,"As an English major, I'm really curious about the outcome of this survey!",Female,English,NA,27
706,default,block2,kids,projective,0.88,8222,MC,33,MC,MC,NA,default,30,Yes,"As an English major, I'm really curious about the outcome of this survey!",Female,English,NA,28
706,default,block2,emma,projective,0.13,8645,prove,34,prove,C,NA,default,30,Yes,"As an English major, I'm really curious about the outcome of this survey!",Female,English,NA,29
706,default,block2,josh,projective,0.74,8114,confess,35,confess,C,NA,default,30,Yes,"As an English major, I'm really curious about the outcome of this survey!",Female,English,NA,30
706,default,block2,frank,projective,0.72,8946,admit,36,admit,C,NA,default,30,Yes,"As an English major, I'm really curious about the outcome of this survey!",Female,English,NA,31
706,default,block2,sophia,projective,0.77,6554,reveal,37,reveal,C,NA,default,30,Yes,"As an English major, I'm really curious about the outcome of this survey!",Female,English,NA,32
706,default,block2,grace,projective,0.9,4597,be_annoyed,38,be_annoyed,C,NA,default,30,Yes,"As an English major, I'm really curious about the outcome of this survey!",Female,English,NA,33
706,default,block2,owen,projective,0.95,9378,see,39,see,C,NA,default,30,Yes,"As an English major, I'm really curious about the outcome of this survey!",Female,English,NA,34
706,default,block2,jackson,projective,0.63,7795,hear,40,hear,C,NA,default,30,Yes,"As an English major, I'm really curious about the outcome of this survey!",Female,English,NA,35
706,default,block2,hat,projective,1,4112,MC,41,MC,MC,NA,default,30,Yes,"As an English major, I'm really curious about the outcome of this survey!",Female,English,NA,36
706,default,block2,mary,projective,0.63,7753,confirm,42,confirm,C,NA,default,30,Yes,"As an English major, I'm really curious about the outcome of this survey!",Female,English,NA,37
706,default,block2,jayden,projective,0.64,13917,be_right,43,be_right,C,NA,default,30,Yes,"As an English major, I'm really curious about the outcome of this survey!",Female,English,NA,38
706,default,block2,julian,projective,0.76,4343,demonstrate,44,demonstrate,C,NA,default,30,Yes,"As an English major, I'm really curious about the outcome of this survey!",Female,English,NA,39
706,default,block2,pizza,projective,0.99,4337,MC,45,MC,MC,NA,default,30,Yes,"As an English major, I'm really curious about the outcome of this survey!",Female,English,NA,40
706,default,block2,ballet,projective,0.99,5672,MC,46,MC,MC,NA,default,30,Yes,"As an English major, I'm really curious about the outcome of this survey!",Female,English,NA,41
706,default,block2,muffins,projective,0.99,3199,MC,47,MC,MC,NA,default,30,Yes,"As an English major, I'm really curious about the outcome of this survey!",Female,English,NA,42
706,default,block2,zoe,projective,0.19,9970,pretend,48,pretend,C,NA,default,30,Yes,"As an English major, I'm really curious about the outcome of this survey!",Female,English,NA,43
706,default,block2,josie,projective,0.67,8367,establish,49,establish,C,NA,default,30,Yes,"As an English major, I'm really curious about the outcome of this survey!",Female,English,NA,44
706,default,block2,jon,projective,0.77,4372,inform,50,inform,C,NA,default,30,Yes,"As an English major, I'm really curious about the outcome of this survey!",Female,English,NA,45
706,default,block2,isabella,projective,0.8,5294,announce,51,announce,C,NA,default,30,Yes,"As an English major, I'm really curious about the outcome of this survey!",Female,English,NA,46
706,default,block2,charley,projective,0.53,4388,suggest,52,suggest,C,NA,default,30,Yes,"As an English major, I'm really curious about the outcome of this survey!",Female,English,NA,47
706,default,block2,olivia,projective,0.81,5465,know,53,know,C,NA,default,30,Yes,"As an English major, I'm really curious about the outcome of this survey!",Female,English,NA,48
706,default,block2,mia,projective,0.81,3146,discover,54,discover,C,NA,default,30,Yes,"As an English major, I'm really curious about the outcome of this survey!",Female,English,NA,49
706,default,block2,danny,projective,0.14,3946,think,55,think,C,NA,default,30,Yes,"As an English major, I'm really curious about the outcome of this survey!",Female,English,NA,50
706,default,block2,garage,projective,0.99,2478,MC,56,MC,MC,NA,default,30,Yes,"As an English major, I'm really curious about the outcome of this survey!",Female,English,NA,51
706,default,block2,emily,projective,0.63,5997,acknowledge,57,acknowledge,C,NA,default,30,Yes,"As an English major, I'm really curious about the outcome of this survey!",Female,English,NA,52
912,default,block1,zoe,ai,0.84,22825,suggest,5,suggest,C,NA,default,27,Yes,NA,Female,English,NA,1
912,default,block1,muffins,ai,0.12,11918,MC,6,MC,MC,NA,default,27,Yes,NA,Female,English,NA,2
912,default,block1,mary,ai,0.87,8344,be_annoyed,7,be_annoyed,C,NA,default,27,Yes,NA,Female,English,NA,3
912,default,block1,grace,ai,0.85,15246,discover,8,discover,C,NA,default,27,Yes,NA,Female,English,NA,4
912,default,block1,pizza,ai,0.13,5874,MC,9,MC,MC,NA,default,27,Yes,NA,Female,English,NA,5
912,default,block1,mia,ai,1,12994,confess,10,confess,C,NA,default,27,Yes,NA,Female,English,NA,6
912,default,block1,ballet,ai,0,4764,MC,11,MC,MC,NA,default,27,Yes,NA,Female,English,NA,7
912,default,block1,kids,ai,0,4894,MC,12,MC,MC,NA,default,27,Yes,NA,Female,English,NA,8
912,default,block1,isabella,ai,1,10506,establish,13,establish,C,NA,default,27,Yes,NA,Female,English,NA,9
912,default,block1,jon,ai,1,8954,confirm,14,confirm,C,NA,default,27,Yes,NA,Female,English,NA,10
912,default,block1,emily,ai,1,5196,acknowledge,15,acknowledge,C,NA,default,27,Yes,NA,Female,English,NA,11
912,default,block1,sophia,ai,1,4874,prove,16,prove,C,NA,default,27,Yes,NA,Female,English,NA,12
912,default,block1,josh,ai,1,5074,announce,17,announce,C,NA,default,27,Yes,NA,Female,English,NA,13
912,default,block1,jackson,ai,1,4516,be_right,18,be_right,C,NA,default,27,Yes,NA,Female,English,NA,14
912,default,block1,julian,ai,1,5124,see,19,see,C,NA,default,27,Yes,NA,Female,English,NA,15
912,default,block1,olivia,ai,1,8774,admit,20,admit,C,NA,default,27,Yes,NA,Female,English,NA,16
912,default,block1,tony,ai,1,3964,demonstrate,21,demonstrate,C,NA,default,27,Yes,NA,Female,English,NA,17
912,default,block1,danny,ai,1,4736,inform,22,inform,C,NA,default,27,Yes,NA,Female,English,NA,18
912,default,block1,garage,ai,0,5264,MC,23,MC,MC,NA,default,27,Yes,NA,Female,English,NA,19
912,default,block1,owen,ai,1,4074,hear,24,hear,C,NA,default,27,Yes,NA,Female,English,NA,20
912,default,block1,charley,ai,1,4044,pretend,25,pretend,C,NA,default,27,Yes,NA,Female,English,NA,21
912,default,block1,frank,ai,1,4064,think,26,think,C,NA,default,27,Yes,NA,Female,English,NA,22
912,default,block1,emma,ai,1,3084,say,27,say,C,NA,default,27,Yes,NA,Female,English,NA,23
912,default,block1,josie,ai,1,3784,know,28,know,C,NA,default,27,Yes,NA,Female,English,NA,24
912,default,block1,hat,ai,0,5956,MC,29,MC,MC,NA,default,27,Yes,NA,Female,English,NA,25
912,default,block1,jayden,ai,1,15134,reveal,30,reveal,C,NA,default,27,Yes,NA,Female,English,NA,26
912,default,block2,ballet,projective,1,10685,MC,32,MC,MC,NA,default,27,Yes,NA,Female,English,NA,27
912,default,block2,muffins,projective,1,5014,MC,33,MC,MC,NA,default,27,Yes,NA,Female,English,NA,28
912,default,block2,josh,projective,0,18283,announce,34,announce,C,NA,default,27,Yes,NA,Female,English,NA,29
912,default,block2,zoe,projective,0,3783,suggest,35,suggest,C,NA,default,27,Yes,NA,Female,English,NA,30
912,default,block2,emily,projective,0.83,6254,acknowledge,36,acknowledge,C,NA,default,27,Yes,NA,Female,English,NA,31
912,default,block2,danny,projective,0.75,4976,inform,37,inform,C,NA,default,27,Yes,NA,Female,English,NA,32
912,default,block2,emma,projective,0.28,5544,say,38,say,C,NA,default,27,Yes,NA,Female,English,NA,33
912,default,block2,jon,projective,0.35,7134,confirm,39,confirm,C,NA,default,27,Yes,NA,Female,English,NA,34
912,default,block2,josie,projective,0.83,3616,know,40,know,C,NA,default,27,Yes,NA,Female,English,NA,35
912,default,block2,kids,projective,1,4788,MC,41,MC,MC,NA,default,27,Yes,NA,Female,English,NA,36
912,default,block2,jayden,projective,0.6,4284,reveal,42,reveal,C,NA,default,27,Yes,NA,Female,English,NA,37
912,default,block2,tony,projective,0.26,3013,demonstrate,43,demonstrate,C,NA,default,27,Yes,NA,Female,English,NA,38
912,default,block2,grace,projective,0.62,3925,discover,44,discover,C,NA,default,27,Yes,NA,Female,English,NA,39
912,default,block2,mary,projective,0.94,5095,be_annoyed,45,be_annoyed,C,NA,default,27,Yes,NA,Female,English,NA,40
912,default,block2,owen,projective,0.96,5225,hear,46,hear,C,NA,default,27,Yes,NA,Female,English,NA,41
912,default,block2,sophia,projective,0.18,4555,prove,47,prove,C,NA,default,27,Yes,NA,Female,English,NA,42
912,default,block2,hat,projective,1,2775,MC,48,MC,MC,NA,default,27,Yes,NA,Female,English,NA,43
912,default,block2,pizza,projective,1,2615,MC,49,MC,MC,NA,default,27,Yes,NA,Female,English,NA,44
912,default,block2,julian,projective,0.52,6416,see,50,see,C,NA,default,27,Yes,NA,Female,English,NA,45
912,default,block2,charley,projective,0,3154,pretend,51,pretend,C,NA,default,27,Yes,NA,Female,English,NA,46
912,default,block2,isabella,projective,0.51,10125,establish,52,establish,C,NA,default,27,Yes,NA,Female,English,NA,47
912,default,block2,frank,projective,0.2,3497,think,53,think,C,NA,default,27,Yes,NA,Female,English,NA,48
912,default,block2,jackson,projective,0.21,3194,be_right,54,be_right,C,NA,default,27,Yes,NA,Female,English,NA,49
912,default,block2,mia,projective,0.44,5515,confess,55,confess,C,NA,default,27,Yes,NA,Female,English,NA,50
912,default,block2,olivia,projective,0.66,3586,admit,56,admit,C,NA,default,27,Yes,NA,Female,English,NA,51
912,default,block2,garage,projective,1,2506,MC,57,MC,MC,NA,default,27,Yes,NA,Female,English,NA,52
756,default,block1,olivia,ai,0.22999999999999998,22794,reveal,5,reveal,C,NA,default,26,Yes,NA,Female,English,NA,1
756,default,block1,frank,ai,0.44999999999999996,13794,discover,6,discover,C,NA,default,26,Yes,NA,Female,English,NA,2
756,default,block1,ballet,ai,0,8056,MC,7,MC,MC,NA,default,26,Yes,NA,Female,English,NA,3
756,default,block1,jon,ai,0.37,8153,admit,8,admit,C,NA,default,26,Yes,NA,Female,English,NA,4
756,default,block1,jackson,ai,0.44999999999999996,9556,inform,9,inform,C,NA,default,26,Yes,NA,Female,English,NA,5
756,default,block1,muffins,ai,0.040000000000000036,8616,MC,10,MC,MC,NA,default,26,Yes,NA,Female,English,NA,6
756,default,block1,josie,ai,0.31000000000000005,6932,prove,11,prove,C,NA,default,26,Yes,NA,Female,English,NA,7
756,default,block1,pizza,ai,0,6106,MC,12,MC,MC,NA,default,26,Yes,NA,Female,English,NA,8
756,default,block1,josh,ai,0.43000000000000005,16240,be_annoyed,13,be_annoyed,C,NA,default,26,Yes,NA,Female,English,NA,9
756,default,block1,hat,ai,0,4861,MC,14,MC,MC,NA,default,26,Yes,NA,Female,English,NA,10
756,default,block1,isabella,ai,0.36,5918,suggest,15,suggest,C,NA,default,26,Yes,NA,Female,English,NA,11
756,default,block1,emma,ai,0.32999999999999996,5243,see,16,see,C,NA,default,26,Yes,NA,Female,English,NA,12
756,default,block1,zoe,ai,0.37,12946,think,17,think,C,NA,default,26,Yes,NA,Female,English,NA,13
756,default,block1,mia,ai,0.38,7036,confirm,18,confirm,C,NA,default,26,Yes,NA,Female,English,NA,14
756,default,block1,tony,ai,0.36,5004,establish,19,establish,C,NA,default,26,Yes,NA,Female,English,NA,15
756,default,block1,charley,ai,0.31999999999999995,8274,demonstrate,20,demonstrate,C,NA,default,26,Yes,NA,Female,English,NA,16
756,default,block1,kids,ai,0,5916,MC,21,MC,MC,NA,default,26,Yes,NA,Female,English,NA,17
756,default,block1,danny,ai,0.36,4907,acknowledge,22,acknowledge,C,NA,default,26,Yes,NA,Female,English,NA,18
756,default,block1,garage,ai,0,8304,MC,23,MC,MC,NA,default,26,Yes,NA,Female,English,NA,19
756,default,block1,julian,ai,0.4,7585,say,24,say,C,NA,default,26,Yes,NA,Female,English,NA,20
756,default,block1,owen,ai,0.31000000000000005,12046,be_right,25,be_right,C,NA,default,26,Yes,NA,Female,English,NA,21
756,default,block1,emily,ai,0.35,7621,pretend,26,pretend,C,NA,default,26,Yes,NA,Female,English,NA,22
756,default,block1,jayden,ai,0.32999999999999996,9361,know,27,know,C,NA,default,26,Yes,NA,Female,English,NA,23
756,default,block1,mary,ai,0.37,7785,announce,28,announce,C,NA,default,26,Yes,NA,Female,English,NA,24
756,default,block1,grace,ai,0.31999999999999995,9416,confess,29,confess,C,NA,default,26,Yes,NA,Female,English,NA,25
756,default,block1,sophia,ai,0.33999999999999997,5235,hear,30,hear,C,NA,default,26,Yes,NA,Female,English,NA,26
756,default,block2,mia,projective,1,17964,confirm,32,confirm,C,NA,default,26,Yes,NA,Female,English,NA,27
756,default,block2,emma,projective,0.25,12437,see,33,see,C,NA,default,26,Yes,NA,Female,English,NA,28
756,default,block2,kids,projective,1,7073,MC,34,MC,MC,NA,default,26,Yes,NA,Female,English,NA,29
756,default,block2,tony,projective,0.2,20472,establish,35,establish,C,NA,default,26,Yes,NA,Female,English,NA,30
756,default,block2,muffins,projective,0.97,7546,MC,36,MC,MC,NA,default,26,Yes,NA,Female,English,NA,31
756,default,block2,olivia,projective,0.94,38541,reveal,37,reveal,C,NA,default,26,Yes,NA,Female,English,NA,32
756,default,block2,ballet,projective,0.96,11793,MC,38,MC,MC,NA,default,26,Yes,NA,Female,English,NA,33
756,default,block2,jon,projective,0.59,10912,admit,39,admit,C,NA,default,26,Yes,NA,Female,English,NA,34
756,default,block2,josh,projective,0.64,11195,be_annoyed,40,be_annoyed,C,NA,default,26,Yes,NA,Female,English,NA,35
756,default,block2,julian,projective,0.71,5955,say,41,say,C,NA,default,26,Yes,NA,Female,English,NA,36
756,default,block2,owen,projective,0.64,9324,be_right,42,be_right,C,NA,default,26,Yes,NA,Female,English,NA,37
756,default,block2,grace,projective,0.64,10412,confess,43,confess,C,NA,default,26,Yes,NA,Female,English,NA,38
756,default,block2,frank,projective,0.54,10576,discover,44,discover,C,NA,default,26,Yes,NA,Female,English,NA,39
756,default,block2,isabella,projective,0.61,6998,suggest,45,suggest,C,NA,default,26,Yes,NA,Female,English,NA,40
756,default,block2,jackson,projective,0.69,12737,inform,46,inform,C,NA,default,26,Yes,NA,Female,English,NA,41
756,default,block2,emily,projective,0.18,9249,pretend,47,pretend,C,NA,default,26,Yes,NA,Female,English,NA,42
756,default,block2,mary,projective,0.47,10689,announce,48,announce,C,NA,default,26,Yes,NA,Female,English,NA,43
756,default,block2,danny,projective,0.59,29817,acknowledge,49,acknowledge,C,NA,default,26,Yes,NA,Female,English,NA,44
756,default,block2,garage,projective,0.97,6331,MC,50,MC,MC,NA,default,26,Yes,NA,Female,English,NA,45
756,default,block2,zoe,projective,0.59,9916,think,51,think,C,NA,default,26,Yes,NA,Female,English,NA,46
756,default,block2,charley,projective,0.41,19227,demonstrate,52,demonstrate,C,NA,default,26,Yes,NA,Female,English,NA,47
756,default,block2,pizza,projective,0.97,5505,MC,53,MC,MC,NA,default,26,Yes,NA,Female,English,NA,48
756,default,block2,hat,projective,0.96,4837,MC,54,MC,MC,NA,default,26,Yes,NA,Female,English,NA,49
756,default,block2,josie,projective,0.42,10510,prove,55,prove,C,NA,default,26,Yes,NA,Female,English,NA,50
756,default,block2,jayden,projective,0.89,10037,know,56,know,C,NA,default,26,Yes,NA,Female,English,NA,51
756,default,block2,sophia,projective,0.8,8372,hear,57,hear,C,NA,default,26,Yes,NA,Female,English,NA,52
954,default,block1,julian,projective,0.32,19145,discover,5,discover,C,NA,default,40,Yes,NA,Male,English,NA,1
954,default,block1,mia,projective,0.62,15093,reveal,6,reveal,C,NA,default,40,Yes,NA,Male,English,NA,2
954,default,block1,olivia,projective,0.33,11376,establish,7,establish,C,NA,default,40,Yes,NA,Male,English,NA,3
954,default,block1,hat,projective,1,11862,MC,8,MC,MC,NA,default,40,Yes,NA,Male,English,NA,4
954,default,block1,tony,projective,0.65,9446,know,9,know,C,NA,default,40,Yes,NA,Male,English,NA,5
954,default,block1,josh,projective,0.76,10372,inform,10,inform,C,NA,default,40,Yes,NA,Male,English,NA,6
954,default,block1,jon,projective,0.39,10393,say,11,say,C,NA,default,40,Yes,NA,Male,English,NA,7
954,default,block1,isabella,projective,0.36,15150,demonstrate,12,demonstrate,C,NA,default,40,Yes,NA,Male,English,NA,8
954,default,block1,danny,projective,0.31,10228,suggest,13,suggest,C,NA,default,40,Yes,NA,Male,English,NA,9
954,default,block1,mary,projective,0.75,5449,admit,14,admit,C,NA,default,40,Yes,NA,Male,English,NA,10
954,default,block1,muffins,projective,0.97,6078,MC,15,MC,MC,NA,default,40,Yes,NA,Male,English,NA,11
954,default,block1,zoe,projective,0.43,11819,prove,16,prove,C,NA,default,40,Yes,NA,Male,English,NA,12
954,default,block1,emma,projective,0.63,19623,be_annoyed,17,be_annoyed,C,NA,default,40,Yes,NA,Male,English,NA,13
954,default,block1,kids,projective,1,10476,MC,18,MC,MC,NA,default,40,Yes,NA,Male,English,NA,14
954,default,block1,charley,projective,0.29,8144,think,19,think,C,NA,default,40,Yes,NA,Male,English,NA,15
954,default,block1,garage,projective,0.98,7682,MC,20,MC,MC,NA,default,40,Yes,NA,Male,English,NA,16
954,default,block1,jackson,projective,0.61,10939,see,21,see,C,NA,default,40,Yes,NA,Male,English,NA,17
954,default,block1,grace,projective,0.27,13761,pretend,22,pretend,C,NA,default,40,Yes,NA,Male,English,NA,18
954,default,block1,pizza,projective,1,6945,MC,23,MC,MC,NA,default,40,Yes,NA,Male,English,NA,19
954,default,block1,owen,projective,0.71,14253,hear,24,hear,C,NA,default,40,Yes,NA,Male,English,NA,20
954,default,block1,ballet,projective,0.97,6220,MC,25,MC,MC,NA,default,40,Yes,NA,Male,English,NA,21
954,default,block1,josie,projective,0.77,6962,announce,26,announce,C,NA,default,40,Yes,NA,Male,English,NA,22
954,default,block1,emily,projective,0.14,10839,be_right,27,be_right,C,NA,default,40,Yes,NA,Male,English,NA,23
954,default,block1,sophia,projective,0.82,11816,confirm,28,confirm,C,NA,default,40,Yes,NA,Male,English,NA,24
954,default,block1,jayden,projective,0.83,7676,confess,29,confess,C,NA,default,40,Yes,NA,Male,English,NA,25
954,default,block1,frank,projective,0.71,28655,acknowledge,30,acknowledge,C,NA,default,40,Yes,NA,Male,English,NA,26
954,default,block2,muffins,ai,0.030000000000000027,8967,MC,32,MC,MC,NA,default,40,Yes,NA,Male,English,NA,27
954,default,block2,mia,ai,0.010000000000000009,8725,reveal,33,reveal,C,NA,default,40,Yes,NA,Male,English,NA,28
954,default,block2,emma,ai,0.54,31583,be_annoyed,34,be_annoyed,C,NA,default,40,Yes,NA,Male,English,NA,29
954,default,block2,danny,ai,0.56,9986,suggest,35,suggest,C,NA,default,40,Yes,NA,Male,English,NA,30
954,default,block2,julian,ai,0.61,6417,discover,36,discover,C,NA,default,40,Yes,NA,Male,English,NA,31
954,default,block2,pizza,ai,0.06999999999999995,7594,MC,37,MC,MC,NA,default,40,Yes,NA,Male,English,NA,32
954,default,block2,jon,ai,0.51,5767,say,38,say,C,NA,default,40,Yes,NA,Male,English,NA,33
954,default,block2,sophia,ai,0.87,17117,confirm,39,confirm,C,NA,default,40,Yes,NA,Male,English,NA,34
954,default,block2,isabella,ai,0.75,7642,demonstrate,40,demonstrate,C,NA,default,40,Yes,NA,Male,English,NA,35
954,default,block2,mary,ai,0.7,8429,admit,41,admit,C,NA,default,40,Yes,NA,Male,English,NA,36
954,default,block2,emily,ai,0.6799999999999999,7843,be_right,42,be_right,C,NA,default,40,Yes,NA,Male,English,NA,37
954,default,block2,tony,ai,0.6599999999999999,6386,know,43,know,C,NA,default,40,Yes,NA,Male,English,NA,38
954,default,block2,josh,ai,0.74,6416,inform,44,inform,C,NA,default,40,Yes,NA,Male,English,NA,39
954,default,block2,grace,ai,0.6599999999999999,7758,pretend,45,pretend,C,NA,default,40,Yes,NA,Male,English,NA,40
954,default,block2,kids,ai,0.040000000000000036,7261,MC,46,MC,MC,NA,default,40,Yes,NA,Male,English,NA,41
954,default,block2,olivia,ai,0.72,8405,establish,47,establish,C,NA,default,40,Yes,NA,Male,English,NA,42
954,default,block2,frank,ai,0.76,6826,acknowledge,48,acknowledge,C,NA,default,40,Yes,NA,Male,English,NA,43
954,default,block2,zoe,ai,0.73,6742,prove,49,prove,C,NA,default,40,Yes,NA,Male,English,NA,44
954,default,block2,charley,ai,0.75,8197,think,50,think,C,NA,default,40,Yes,NA,Male,English,NA,45
954,default,block2,hat,ai,0.030000000000000027,7726,MC,51,MC,MC,NA,default,40,Yes,NA,Male,English,NA,46
954,default,block2,jackson,ai,0.85,5770,see,52,see,C,NA,default,40,Yes,NA,Male,English,NA,47
954,default,block2,josie,ai,0.78,7113,announce,53,announce,C,NA,default,40,Yes,NA,Male,English,NA,48
954,default,block2,owen,ai,0.79,11546,hear,54,hear,C,NA,default,40,Yes,NA,Male,English,NA,49
954,default,block2,jayden,ai,0.78,8930,confess,55,confess,C,NA,default,40,Yes,NA,Male,English,NA,50
954,default,block2,garage,ai,0.10999999999999999,5249,MC,56,MC,MC,NA,default,40,Yes,NA,Male,English,NA,51
954,default,block2,ballet,ai,0,8815,MC,57,MC,MC,NA,default,40,Yes,NA,Male,English,NA,52
795,default,block1,garage,projective,0.97,50428,MC,5,MC,MC,NA,default,29,Yes,N/A,Male,English,NA,1
795,default,block1,sophia,projective,0.55,24260,pretend,6,pretend,C,NA,default,29,Yes,N/A,Male,English,NA,2
795,default,block1,zoe,projective,0.78,21140,see,7,see,C,NA,default,29,Yes,N/A,Male,English,NA,3
795,default,block1,owen,projective,0.03,21132,demonstrate,8,demonstrate,C,NA,default,29,Yes,N/A,Male,English,NA,4
795,default,block1,emma,projective,0.03,15727,say,9,say,C,NA,default,29,Yes,N/A,Male,English,NA,5
795,default,block1,tony,projective,0.06,15761,acknowledge,10,acknowledge,C,NA,default,29,Yes,N/A,Male,English,NA,6
795,default,block1,frank,projective,0.02,13452,reveal,11,reveal,C,NA,default,29,Yes,N/A,Male,English,NA,7
795,default,block1,grace,projective,0.08,11369,admit,12,admit,C,NA,default,29,Yes,N/A,Male,English,NA,8
795,default,block1,jayden,projective,0.15,7265,be_annoyed,13,be_annoyed,C,NA,default,29,Yes,N/A,Male,English,NA,9
795,default,block1,danny,projective,0.33,5558,establish,14,establish,C,NA,default,29,Yes,N/A,Male,English,NA,10
795,default,block1,josie,projective,0.98,22005,know,15,know,C,NA,default,29,Yes,N/A,Male,English,NA,11
795,default,block1,kids,projective,0.99,14663,MC,16,MC,MC,NA,default,29,Yes,N/A,Male,English,NA,12
795,default,block1,charley,projective,0.04,17143,prove,17,prove,C,NA,default,29,Yes,N/A,Male,English,NA,13
795,default,block1,muffins,projective,0.99,11132,MC,18,MC,MC,NA,default,29,Yes,N/A,Male,English,NA,14
795,default,block1,isabella,projective,0.94,24508,hear,19,hear,C,NA,default,29,Yes,N/A,Male,English,NA,15
795,default,block1,mia,projective,0.04,13694,suggest,20,suggest,C,NA,default,29,Yes,N/A,Male,English,NA,16
795,default,block1,jon,projective,0.05,5779,discover,21,discover,C,NA,default,29,Yes,N/A,Male,English,NA,17
795,default,block1,ballet,projective,1,10795,MC,22,MC,MC,NA,default,29,Yes,N/A,Male,English,NA,18
795,default,block1,jackson,projective,0.02,10187,be_right,23,be_right,C,NA,default,29,Yes,N/A,Male,English,NA,19
795,default,block1,pizza,projective,0.99,9718,MC,24,MC,MC,NA,default,29,Yes,N/A,Male,English,NA,20
795,default,block1,mary,projective,0.02,16271,confirm,25,confirm,C,NA,default,29,Yes,N/A,Male,English,NA,21
795,default,block1,emily,projective,0.07,27660,think,26,think,C,NA,default,29,Yes,N/A,Male,English,NA,22
795,default,block1,josh,projective,0.05,3911,inform,27,inform,C,NA,default,29,Yes,N/A,Male,English,NA,23
795,default,block1,olivia,projective,0.98,25024,confess,28,confess,C,NA,default,29,Yes,N/A,Male,English,NA,24
795,default,block1,hat,projective,0.96,11534,MC,29,MC,MC,NA,default,29,Yes,N/A,Male,English,NA,25
795,default,block1,julian,projective,0.06,15576,announce,30,announce,C,NA,default,29,Yes,N/A,Male,English,NA,26
795,default,block2,emma,ai,0.010000000000000009,28976,say,32,say,C,NA,default,29,Yes,N/A,Male,English,NA,27
795,default,block2,frank,ai,0.030000000000000027,14334,reveal,33,reveal,C,NA,default,29,Yes,N/A,Male,English,NA,28
795,default,block2,tony,ai,0.020000000000000018,30597,acknowledge,34,acknowledge,C,NA,default,29,Yes,N/A,Male,English,NA,29
795,default,block2,charley,ai,0.010000000000000009,5374,prove,35,prove,C,NA,default,29,Yes,N/A,Male,English,NA,30
795,default,block2,emily,ai,0.020000000000000018,7111,think,36,think,C,NA,default,29,Yes,N/A,Male,English,NA,31
795,default,block2,olivia,ai,0.07999999999999996,31298,confess,37,confess,C,NA,default,29,Yes,N/A,Male,English,NA,32
795,default,block2,jackson,ai,0.17000000000000004,4514,be_right,38,be_right,C,NA,default,29,Yes,N/A,Male,English,NA,33
795,default,block2,mia,ai,0.08999999999999997,4799,suggest,39,suggest,C,NA,default,29,Yes,N/A,Male,English,NA,34
795,default,block2,grace,ai,0.09999999999999998,5611,admit,40,admit,C,NA,default,29,Yes,N/A,Male,English,NA,35
795,default,block2,pizza,ai,0.030000000000000027,13805,MC,41,MC,MC,NA,default,29,Yes,N/A,Male,English,NA,36
795,default,block2,zoe,ai,0.8,8106,see,42,see,C,NA,default,29,Yes,N/A,Male,English,NA,37
795,default,block2,mary,ai,0.91,12908,confirm,43,confirm,C,NA,default,29,Yes,N/A,Male,English,NA,38
795,default,block2,danny,ai,0.76,8028,establish,44,establish,C,NA,default,29,Yes,N/A,Male,English,NA,39
795,default,block2,kids,ai,0.020000000000000018,10956,MC,45,MC,MC,NA,default,29,Yes,N/A,Male,English,NA,40
795,default,block2,josie,ai,0.53,5517,know,46,know,C,NA,default,29,Yes,N/A,Male,English,NA,41
795,default,block2,garage,ai,0.020000000000000018,28148,MC,47,MC,MC,NA,default,29,Yes,N/A,Male,English,NA,42
795,default,block2,sophia,ai,0.97,5011,pretend,48,pretend,C,NA,default,29,Yes,N/A,Male,English,NA,43
795,default,block2,hat,ai,0.020000000000000018,14285,MC,49,MC,MC,NA,default,29,Yes,N/A,Male,English,NA,44
795,default,block2,jayden,ai,0.88,13642,be_annoyed,50,be_annoyed,C,NA,default,29,Yes,N/A,Male,English,NA,45
795,default,block2,muffins,ai,0.020000000000000018,10225,MC,51,MC,MC,NA,default,29,Yes,N/A,Male,English,NA,46
795,default,block2,ballet,ai,0.020000000000000018,6283,MC,52,MC,MC,NA,default,29,Yes,N/A,Male,English,NA,47
795,default,block2,isabella,ai,0.98,11538,hear,53,hear,C,NA,default,29,Yes,N/A,Male,English,NA,48
795,default,block2,josh,ai,0.98,6551,inform,54,inform,C,NA,default,29,Yes,N/A,Male,English,NA,49
795,default,block2,julian,ai,0.96,3922,announce,55,announce,C,NA,default,29,Yes,N/A,Male,English,NA,50
795,default,block2,owen,ai,0.89,4119,demonstrate,56,demonstrate,C,NA,default,29,Yes,N/A,Male,English,NA,51
795,default,block2,jon,ai,0.98,5369,discover,57,discover,C,NA,default,29,Yes,N/A,Male,English,NA,52
962,default,block1,owen,projective,0.77,35053,demonstrate,5,demonstrate,C,NA,default,21,Yes,NA,Female,English,NA,1
962,default,block1,mary,projective,0.4,17250,confess,6,confess,C,NA,default,21,Yes,NA,Female,English,NA,2
962,default,block1,josie,projective,0.61,20466,prove,7,prove,C,NA,default,21,Yes,NA,Female,English,NA,3
962,default,block1,pizza,projective,0.99,11441,MC,8,MC,MC,NA,default,21,Yes,NA,Female,English,NA,4
962,default,block1,jayden,projective,0.64,17524,establish,9,establish,C,NA,default,21,Yes,NA,Female,English,NA,5
962,default,block1,jackson,projective,0.72,28148,hear,10,hear,C,NA,default,21,Yes,NA,Female,English,NA,6
962,default,block1,isabella,projective,0.9,10882,discover,11,discover,C,NA,default,21,Yes,NA,Female,English,NA,7
962,default,block1,danny,projective,0.98,15248,be_annoyed,12,be_annoyed,C,NA,default,21,Yes,NA,Female,English,NA,8
962,default,block1,emily,projective,0.76,12546,see,13,see,C,NA,default,21,Yes,NA,Female,English,NA,9
962,default,block1,muffins,projective,1,6752,MC,14,MC,MC,NA,default,21,Yes,NA,Female,English,NA,10
962,default,block1,charley,projective,0.47,12230,admit,15,admit,C,NA,default,21,Yes,NA,Female,English,NA,11
962,default,block1,ballet,projective,1,5583,MC,16,MC,MC,NA,default,21,Yes,NA,Female,English,NA,12
962,default,block1,frank,projective,0.62,18299,reveal,17,reveal,C,NA,default,21,Yes,NA,Female,English,NA,13
962,default,block1,zoe,projective,0.84,10215,know,18,know,C,NA,default,21,Yes,NA,Female,English,NA,14
962,default,block1,julian,projective,0.85,8587,confirm,19,confirm,C,NA,default,21,Yes,NA,Female,English,NA,15
962,default,block1,mia,projective,0.43,13827,announce,20,announce,C,NA,default,21,Yes,NA,Female,English,NA,16
962,default,block1,grace,projective,0.08,13182,pretend,21,pretend,C,NA,default,21,Yes,NA,Female,English,NA,17
962,default,block1,garage,projective,1,8197,MC,22,MC,MC,NA,default,21,Yes,NA,Female,English,NA,18
962,default,block1,jon,projective,0.12,16815,inform,23,inform,C,NA,default,21,Yes,NA,Female,English,NA,19
962,default,block1,olivia,projective,0.89,16131,suggest,24,suggest,C,NA,default,21,Yes,NA,Female,English,NA,20
962,default,block1,hat,projective,0.99,4781,MC,25,MC,MC,NA,default,21,Yes,NA,Female,English,NA,21
962,default,block1,emma,projective,0.11,13115,think,26,think,C,NA,default,21,Yes,NA,Female,English,NA,22
962,default,block1,josh,projective,0.96,10266,acknowledge,27,acknowledge,C,NA,default,21,Yes,NA,Female,English,NA,23
962,default,block1,kids,projective,0.99,4883,MC,28,MC,MC,NA,default,21,Yes,NA,Female,English,NA,24
962,default,block1,sophia,projective,0.27,6230,be_right,29,be_right,C,NA,default,21,Yes,NA,Female,English,NA,25
962,default,block1,tony,projective,0.71,11182,say,30,say,C,NA,default,21,Yes,NA,Female,English,NA,26
962,default,block2,mia,ai,0.89,83895,announce,32,announce,C,NA,default,21,Yes,NA,Female,English,NA,27
962,default,block2,charley,ai,0.41000000000000003,15365,admit,33,admit,C,NA,default,21,Yes,NA,Female,English,NA,28
962,default,block2,pizza,ai,0.020000000000000018,7833,MC,34,MC,MC,NA,default,21,Yes,NA,Female,English,NA,29
962,default,block2,danny,ai,0.8,20412,be_annoyed,35,be_annoyed,C,NA,default,21,Yes,NA,Female,English,NA,30
962,default,block2,muffins,ai,0.020000000000000018,8670,MC,36,MC,MC,NA,default,21,Yes,NA,Female,English,NA,31
962,default,block2,josie,ai,0.62,10253,prove,37,prove,C,NA,default,21,Yes,NA,Female,English,NA,32
962,default,block2,owen,ai,0.65,9088,demonstrate,38,demonstrate,C,NA,default,21,Yes,NA,Female,English,NA,33
962,default,block2,mary,ai,0.5,8698,confess,39,confess,C,NA,default,21,Yes,NA,Female,English,NA,34
962,default,block2,julian,ai,0.72,6768,confirm,40,confirm,C,NA,default,21,Yes,NA,Female,English,NA,35
962,default,block2,jackson,ai,0.72,14947,hear,41,hear,C,NA,default,21,Yes,NA,Female,English,NA,36
962,default,block2,jon,ai,0.64,11531,inform,42,inform,C,NA,default,21,Yes,NA,Female,English,NA,37
962,default,block2,garage,ai,0.020000000000000018,6466,MC,43,MC,MC,NA,default,21,Yes,NA,Female,English,NA,38
962,default,block2,zoe,ai,0.7,4951,know,44,know,C,NA,default,21,Yes,NA,Female,English,NA,39
962,default,block2,frank,ai,0.48,7081,reveal,45,reveal,C,NA,default,21,Yes,NA,Female,English,NA,40
962,default,block2,sophia,ai,0.65,4750,be_right,46,be_right,C,NA,default,21,Yes,NA,Female,English,NA,41
962,default,block2,kids,ai,0.010000000000000009,3799,MC,47,MC,MC,NA,default,21,Yes,NA,Female,English,NA,42
962,default,block2,isabella,ai,0.77,4615,discover,48,discover,C,NA,default,21,Yes,NA,Female,English,NA,43
962,default,block2,ballet,ai,0.020000000000000018,3748,MC,49,MC,MC,NA,default,21,Yes,NA,Female,English,NA,44
962,default,block2,emma,ai,0.6699999999999999,10900,think,50,think,C,NA,default,21,Yes,NA,Female,English,NA,45
962,default,block2,josh,ai,0.86,9912,acknowledge,51,acknowledge,C,NA,default,21,Yes,NA,Female,English,NA,46
962,default,block2,olivia,ai,0.5900000000000001,7832,suggest,52,suggest,C,NA,default,21,Yes,NA,Female,English,NA,47
962,default,block2,emily,ai,0.51,10747,see,53,see,C,NA,default,21,Yes,NA,Female,English,NA,48
962,default,block2,jayden,ai,0.74,4317,establish,54,establish,C,NA,default,21,Yes,NA,Female,English,NA,49
962,default,block2,grace,ai,0.53,4431,pretend,55,pretend,C,NA,default,21,Yes,NA,Female,English,NA,50
962,default,block2,hat,ai,0.020000000000000018,3802,MC,56,MC,MC,NA,default,21,Yes,NA,Female,English,NA,51
962,default,block2,tony,ai,0.49,4096,say,57,say,C,NA,default,21,Yes,NA,Female,English,NA,52
809,default,block1,owen,ai,0.98,18660,demonstrate,5,demonstrate,C,NA,default,33,Yes,"For me, the questions about the "if" sentences can really only properly be answered by questioning the main clause. E.g., If..., someone will be sad. Are you sure? Yes, someone will be sad.",Female,English,NA,1
809,default,block1,mia,ai,1,16884,suggest,6,suggest,C,NA,default,33,Yes,"For me, the questions about the "if" sentences can really only properly be answered by questioning the main clause. E.g., If..., someone will be sad. Are you sure? Yes, someone will be sad.",Female,English,NA,2
809,default,block1,kids,ai,0.020000000000000018,8261,MC,7,MC,MC,NA,default,33,Yes,"For me, the questions about the "if" sentences can really only properly be answered by questioning the main clause. E.g., If..., someone will be sad. Are you sure? Yes, someone will be sad.",Female,English,NA,3
809,default,block1,jackson,ai,1,8732,reveal,8,reveal,C,NA,default,33,Yes,"For me, the questions about the "if" sentences can really only properly be answered by questioning the main clause. E.g., If..., someone will be sad. Are you sure? Yes, someone will be sad.",Female,English,NA,4
809,default,block1,julian,ai,0.99,17419,be_right,9,be_right,C,NA,default,33,Yes,"For me, the questions about the "if" sentences can really only properly be answered by questioning the main clause. E.g., If..., someone will be sad. Are you sure? Yes, someone will be sad.",Female,English,NA,5
809,default,block1,tony,ai,0.99,9646,prove,10,prove,C,NA,default,33,Yes,"For me, the questions about the "if" sentences can really only properly be answered by questioning the main clause. E.g., If..., someone will be sad. Are you sure? Yes, someone will be sad.",Female,English,NA,6
809,default,block1,isabella,ai,0.99,9347,admit,11,admit,C,NA,default,33,Yes,"For me, the questions about the "if" sentences can really only properly be answered by questioning the main clause. E.g., If..., someone will be sad. Are you sure? Yes, someone will be sad.",Female,English,NA,7
809,default,block1,josh,ai,0.98,5512,hear,12,hear,C,NA,default,33,Yes,"For me, the questions about the "if" sentences can really only properly be answered by questioning the main clause. E.g., If..., someone will be sad. Are you sure? Yes, someone will be sad.",Female,English,NA,8
809,default,block1,pizza,ai,0.040000000000000036,4981,MC,13,MC,MC,NA,default,33,Yes,"For me, the questions about the "if" sentences can really only properly be answered by questioning the main clause. E.g., If..., someone will be sad. Are you sure? Yes, someone will be sad.",Female,English,NA,9
809,default,block1,muffins,ai,0.010000000000000009,8942,MC,14,MC,MC,NA,default,33,Yes,"For me, the questions about the "if" sentences can really only properly be answered by questioning the main clause. E.g., If..., someone will be sad. Are you sure? Yes, someone will be sad.",Female,English,NA,10
809,default,block1,jayden,ai,0.83,23396,discover,15,discover,C,NA,default,33,Yes,"For me, the questions about the "if" sentences can really only properly be answered by questioning the main clause. E.g., If..., someone will be sad. Are you sure? Yes, someone will be sad.",Female,English,NA,11
809,default,block1,ballet,ai,0.010000000000000009,5029,MC,16,MC,MC,NA,default,33,Yes,"For me, the questions about the "if" sentences can really only properly be answered by questioning the main clause. E.g., If..., someone will be sad. Are you sure? Yes, someone will be sad.",Female,English,NA,12
809,default,block1,grace,ai,0.98,10375,think,17,think,C,NA,default,33,Yes,"For me, the questions about the "if" sentences can really only properly be answered by questioning the main clause. E.g., If..., someone will be sad. Are you sure? Yes, someone will be sad.",Female,English,NA,13
809,default,block1,frank,ai,0.99,11088,pretend,18,pretend,C,NA,default,33,Yes,"For me, the questions about the "if" sentences can really only properly be answered by questioning the main clause. E.g., If..., someone will be sad. Are you sure? Yes, someone will be sad.",Female,English,NA,14
809,default,block1,danny,ai,0.9,14991,confirm,19,confirm,C,NA,default,33,Yes,"For me, the questions about the "if" sentences can really only properly be answered by questioning the main clause. E.g., If..., someone will be sad. Are you sure? Yes, someone will be sad.",Female,English,NA,15
809,default,block1,mary,ai,0.98,9482,acknowledge,20,acknowledge,C,NA,default,33,Yes,"For me, the questions about the "if" sentences can really only properly be answered by questioning the main clause. E.g., If..., someone will be sad. Are you sure? Yes, someone will be sad.",Female,English,NA,16
809,default,block1,sophia,ai,0.97,6672,know,21,know,C,NA,default,33,Yes,"For me, the questions about the "if" sentences can really only properly be answered by questioning the main clause. E.g., If..., someone will be sad. Are you sure? Yes, someone will be sad.",Female,English,NA,17
809,default,block1,jon,ai,0.98,17739,establish,22,establish,C,NA,default,33,Yes,"For me, the questions about the "if" sentences can really only properly be answered by questioning the main clause. E.g., If..., someone will be sad. Are you sure? Yes, someone will be sad.",Female,English,NA,18
809,default,block1,zoe,ai,0.98,20229,confess,23,confess,C,NA,default,33,Yes,"For me, the questions about the "if" sentences can really only properly be answered by questioning the main clause. E.g., If..., someone will be sad. Are you sure? Yes, someone will be sad.",Female,English,NA,19
809,default,block1,olivia,ai,0.97,5144,be_annoyed,24,be_annoyed,C,NA,default,33,Yes,"For me, the questions about the "if" sentences can really only properly be answered by questioning the main clause. E.g., If..., someone will be sad. Are you sure? Yes, someone will be sad.",Female,English,NA,20
809,default,block1,garage,ai,0.98,27391,MC,25,MC,MC,NA,default,33,Yes,"For me, the questions about the "if" sentences can really only properly be answered by questioning the main clause. E.g., If..., someone will be sad. Are you sure? Yes, someone will be sad.",Female,English,NA,21
809,default,block1,emma,ai,0.76,43819,inform,26,inform,C,NA,default,33,Yes,"For me, the questions about the "if" sentences can really only properly be answered by questioning the main clause. E.g., If..., someone will be sad. Are you sure? Yes, someone will be sad.",Female,English,NA,22
809,default,block1,charley,ai,0.81,71346,say,27,say,C,NA,default,33,Yes,"For me, the questions about the "if" sentences can really only properly be answered by questioning the main clause. E.g., If..., someone will be sad. Are you sure? Yes, someone will be sad.",Female,English,NA,23
809,default,block1,emily,ai,0.98,4412,see,28,see,C,NA,default,33,Yes,"For me, the questions about the "if" sentences can really only properly be answered by questioning the main clause. E.g., If..., someone will be sad. Are you sure? Yes, someone will be sad.",Female,English,NA,24
809,default,block1,josie,ai,0.97,4576,announce,29,announce,C,NA,default,33,Yes,"For me, the questions about the "if" sentences can really only properly be answered by questioning the main clause. E.g., If..., someone will be sad. Are you sure? Yes, someone will be sad.",Female,English,NA,25
809,default,block1,hat,ai,0.040000000000000036,6768,MC,30,MC,MC,NA,default,33,Yes,"For me, the questions about the "if" sentences can really only properly be answered by questioning the main clause. E.g., If..., someone will be sad. Are you sure? Yes, someone will be sad.",Female,English,NA,26
809,default,block2,muffins,projective,0.98,6084,MC,32,MC,MC,NA,default,33,Yes,"For me, the questions about the "if" sentences can really only properly be answered by questioning the main clause. E.g., If..., someone will be sad. Are you sure? Yes, someone will be sad.",Female,English,NA,27
809,default,block2,jayden,projective,0.98,7974,discover,33,discover,C,NA,default,33,Yes,"For me, the questions about the "if" sentences can really only properly be answered by questioning the main clause. E.g., If..., someone will be sad. Are you sure? Yes, someone will be sad.",Female,English,NA,28
809,default,block2,frank,projective,0.84,6704,pretend,34,pretend,C,NA,default,33,Yes,"For me, the questions about the "if" sentences can really only properly be answered by questioning the main clause. E.g., If..., someone will be sad. Are you sure? Yes, someone will be sad.",Female,English,NA,29
809,default,block2,pizza,projective,0.98,3990,MC,35,MC,MC,NA,default,33,Yes,"For me, the questions about the "if" sentences can really only properly be answered by questioning the main clause. E.g., If..., someone will be sad. Are you sure? Yes, someone will be sad.",Female,English,NA,30
809,default,block2,jackson,projective,0.96,5397,reveal,36,reveal,C,NA,default,33,Yes,"For me, the questions about the "if" sentences can really only properly be answered by questioning the main clause. E.g., If..., someone will be sad. Are you sure? Yes, someone will be sad.",Female,English,NA,31
809,default,block2,ballet,projective,1,4356,MC,37,MC,MC,NA,default,33,Yes,"For me, the questions about the "if" sentences can really only properly be answered by questioning the main clause. E.g., If..., someone will be sad. Are you sure? Yes, someone will be sad.",Female,English,NA,32
809,default,block2,josh,projective,0.97,6754,hear,38,hear,C,NA,default,33,Yes,"For me, the questions about the "if" sentences can really only properly be answered by questioning the main clause. E.g., If..., someone will be sad. Are you sure? Yes, someone will be sad.",Female,English,NA,33
809,default,block2,garage,projective,0.98,8374,MC,39,MC,MC,NA,default,33,Yes,"For me, the questions about the "if" sentences can really only properly be answered by questioning the main clause. E.g., If..., someone will be sad. Are you sure? Yes, someone will be sad.",Female,English,NA,34
809,default,block2,grace,projective,0.26,14149,think,40,think,C,NA,default,33,Yes,"For me, the questions about the "if" sentences can really only properly be answered by questioning the main clause. E.g., If..., someone will be sad. Are you sure? Yes, someone will be sad.",Female,English,NA,35
809,default,block2,owen,projective,0.31,11025,demonstrate,41,demonstrate,C,NA,default,33,Yes,"For me, the questions about the "if" sentences can really only properly be answered by questioning the main clause. E.g., If..., someone will be sad. Are you sure? Yes, someone will be sad.",Female,English,NA,36
809,default,block2,olivia,projective,0.95,6208,be_annoyed,42,be_annoyed,C,NA,default,33,Yes,"For me, the questions about the "if" sentences can really only properly be answered by questioning the main clause. E.g., If..., someone will be sad. Are you sure? Yes, someone will be sad.",Female,English,NA,37
809,default,block2,josie,projective,0.87,8097,announce,43,announce,C,NA,default,33,Yes,"For me, the questions about the "if" sentences can really only properly be answered by questioning the main clause. E.g., If..., someone will be sad. Are you sure? Yes, someone will be sad.",Female,English,NA,38
809,default,block2,jon,projective,0.97,6056,establish,44,establish,C,NA,default,33,Yes,"For me, the questions about the "if" sentences can really only properly be answered by questioning the main clause. E.g., If..., someone will be sad. Are you sure? Yes, someone will be sad.",Female,English,NA,39
809,default,block2,julian,projective,0.04,5139,be_right,45,be_right,C,NA,default,33,Yes,"For me, the questions about the "if" sentences can really only properly be answered by questioning the main clause. E.g., If..., someone will be sad. Are you sure? Yes, someone will be sad.",Female,English,NA,40
809,default,block2,charley,projective,0.09,9195,say,46,say,C,NA,default,33,Yes,"For me, the questions about the "if" sentences can really only properly be answered by questioning the main clause. E.g., If..., someone will be sad. Are you sure? Yes, someone will be sad.",Female,English,NA,41
809,default,block2,danny,projective,0.98,5545,confirm,47,confirm,C,NA,default,33,Yes,"For me, the questions about the "if" sentences can really only properly be answered by questioning the main clause. E.g., If..., someone will be sad. Are you sure? Yes, someone will be sad.",Female,English,NA,42
809,default,block2,kids,projective,0.99,4628,MC,48,MC,MC,NA,default,33,Yes,"For me, the questions about the "if" sentences can really only properly be answered by questioning the main clause. E.g., If..., someone will be sad. Are you sure? Yes, someone will be sad.",Female,English,NA,43
809,default,block2,sophia,projective,0.98,6293,know,49,know,C,NA,default,33,Yes,"For me, the questions about the "if" sentences can really only properly be answered by questioning the main clause. E.g., If..., someone will be sad. Are you sure? Yes, someone will be sad.",Female,English,NA,44
809,default,block2,hat,projective,0.97,3553,MC,50,MC,MC,NA,default,33,Yes,"For me, the questions about the "if" sentences can really only properly be answered by questioning the main clause. E.g., If..., someone will be sad. Are you sure? Yes, someone will be sad.",Female,English,NA,45
809,default,block2,mary,projective,0.96,4493,acknowledge,51,acknowledge,C,NA,default,33,Yes,"For me, the questions about the "if" sentences can really only properly be answered by questioning the main clause. E.g., If..., someone will be sad. Are you sure? Yes, someone will be sad.",Female,English,NA,46
809,default,block2,emma,projective,0.95,4802,inform,52,inform,C,NA,default,33,Yes,"For me, the questions about the "if" sentences can really only properly be answered by questioning the main clause. E.g., If..., someone will be sad. Are you sure? Yes, someone will be sad.",Female,English,NA,47
809,default,block2,zoe,projective,0.83,6630,confess,53,confess,C,NA,default,33,Yes,"For me, the questions about the "if" sentences can really only properly be answered by questioning the main clause. E.g., If..., someone will be sad. Are you sure? Yes, someone will be sad.",Female,English,NA,48
809,default,block2,isabella,projective,0.97,3984,admit,54,admit,C,NA,default,33,Yes,"For me, the questions about the "if" sentences can really only properly be answered by questioning the main clause. E.g., If..., someone will be sad. Are you sure? Yes, someone will be sad.",Female,English,NA,49
809,default,block2,tony,projective,0.19,6218,prove,55,prove,C,NA,default,33,Yes,"For me, the questions about the "if" sentences can really only properly be answered by questioning the main clause. E.g., If..., someone will be sad. Are you sure? Yes, someone will be sad.",Female,English,NA,50
809,default,block2,emily,projective,0.46,5480,see,56,see,C,NA,default,33,Yes,"For me, the questions about the "if" sentences can really only properly be answered by questioning the main clause. E.g., If..., someone will be sad. Are you sure? Yes, someone will be sad.",Female,English,NA,51
809,default,block2,mia,projective,0.32,8911,suggest,57,suggest,C,NA,default,33,Yes,"For me, the questions about the "if" sentences can really only properly be answered by questioning the main clause. E.g., If..., someone will be sad. Are you sure? Yes, someone will be sad.",Female,English,NA,52
773,default,block1,frank,ai,0.99,28916,pretend,5,pretend,C,NA,default,46,Yes,NA,Female,English,NA,1
773,default,block1,tony,ai,0.010000000000000009,28011,say,6,say,C,NA,default,46,Yes,NA,Female,English,NA,2
773,default,block1,ballet,ai,0,12604,MC,7,MC,MC,NA,default,46,Yes,NA,Female,English,NA,3
773,default,block1,garage,ai,0.010000000000000009,12962,MC,8,MC,MC,NA,default,46,Yes,NA,Female,English,NA,4
773,default,block1,muffins,ai,0.010000000000000009,9923,MC,9,MC,MC,NA,default,46,Yes,NA,Female,English,NA,5
773,default,block1,mia,ai,0.99,28207,suggest,10,suggest,C,NA,default,46,Yes,NA,Female,English,NA,6
773,default,block1,emily,ai,0.99,13558,see,11,see,C,NA,default,46,Yes,NA,Female,English,NA,7
773,default,block1,charley,ai,1,11175,demonstrate,12,demonstrate,C,NA,default,46,Yes,NA,Female,English,NA,8
773,default,block1,danny,ai,0.99,9055,think,13,think,C,NA,default,46,Yes,NA,Female,English,NA,9
773,default,block1,owen,ai,0.99,11047,announce,14,announce,C,NA,default,46,Yes,NA,Female,English,NA,10
773,default,block1,olivia,ai,0.99,10789,discover,15,discover,C,NA,default,46,Yes,NA,Female,English,NA,11
773,default,block1,josh,ai,0.99,9639,inform,16,inform,C,NA,default,46,Yes,NA,Female,English,NA,12
773,default,block1,isabella,ai,0.99,17362,reveal,17,reveal,C,NA,default,46,Yes,NA,Female,English,NA,13
773,default,block1,zoe,ai,0.98,7912,confirm,18,confirm,C,NA,default,46,Yes,NA,Female,English,NA,14
773,default,block1,emma,ai,0.99,13175,prove,19,prove,C,NA,default,46,Yes,NA,Female,English,NA,15
773,default,block1,jackson,ai,0.99,14023,confess,20,confess,C,NA,default,46,Yes,NA,Female,English,NA,16
773,default,block1,julian,ai,0.99,11816,be_annoyed,21,be_annoyed,C,NA,default,46,Yes,NA,Female,English,NA,17
773,default,block1,hat,ai,0.010000000000000009,10147,MC,22,MC,MC,NA,default,46,Yes,NA,Female,English,NA,18
773,default,block1,sophia,ai,0.99,11282,hear,23,hear,C,NA,default,46,Yes,NA,Female,English,NA,19
773,default,block1,jon,ai,0.98,7560,know,24,know,C,NA,default,46,Yes,NA,Female,English,NA,20
773,default,block1,jayden,ai,0.99,8597,acknowledge,25,acknowledge,C,NA,default,46,Yes,NA,Female,English,NA,21
773,default,block1,pizza,ai,0.020000000000000018,12784,MC,26,MC,MC,NA,default,46,Yes,NA,Female,English,NA,22
773,default,block1,mary,ai,0.99,13289,be_right,27,be_right,C,NA,default,46,Yes,NA,Female,English,NA,23
773,default,block1,grace,ai,0.99,8998,admit,28,admit,C,NA,default,46,Yes,NA,Female,English,NA,24
773,default,block1,josie,ai,0.98,9508,establish,29,establish,C,NA,default,46,Yes,NA,Female,English,NA,25
773,default,block1,kids,ai,0.010000000000000009,12836,MC,30,MC,MC,NA,default,46,Yes,NA,Female,English,NA,26
773,default,block2,ballet,projective,0.99,7092,MC,32,MC,MC,NA,default,46,Yes,NA,Female,English,NA,27
773,default,block2,mary,projective,0.01,8485,be_right,33,be_right,C,NA,default,46,Yes,NA,Female,English,NA,28
773,default,block2,frank,projective,0.01,9448,pretend,34,pretend,C,NA,default,46,Yes,NA,Female,English,NA,29
773,default,block2,josh,projective,0.01,11907,inform,35,inform,C,NA,default,46,Yes,NA,Female,English,NA,30
773,default,block2,owen,projective,0.01,8815,announce,36,announce,C,NA,default,46,Yes,NA,Female,English,NA,31
773,default,block2,garage,projective,0.99,7158,MC,37,MC,MC,NA,default,46,Yes,NA,Female,English,NA,32
773,default,block2,charley,projective,0.02,14201,demonstrate,38,demonstrate,C,NA,default,46,Yes,NA,Female,English,NA,33
773,default,block2,hat,projective,0.98,7775,MC,39,MC,MC,NA,default,46,Yes,NA,Female,English,NA,34
773,default,block2,muffins,projective,0.98,8097,MC,40,MC,MC,NA,default,46,Yes,NA,Female,English,NA,35
773,default,block2,danny,projective,0.01,30413,think,41,think,C,NA,default,46,Yes,NA,Female,English,NA,36
773,default,block2,jayden,projective,0.01,11993,acknowledge,42,acknowledge,C,NA,default,46,Yes,NA,Female,English,NA,37
773,default,block2,mia,projective,0.01,10254,suggest,43,suggest,C,NA,default,46,Yes,NA,Female,English,NA,38
773,default,block2,jackson,projective,0.01,15224,confess,44,confess,C,NA,default,46,Yes,NA,Female,English,NA,39
773,default,block2,sophia,projective,0.01,7839,hear,45,hear,C,NA,default,46,Yes,NA,Female,English,NA,40
773,default,block2,julian,projective,0.99,24827,be_annoyed,46,be_annoyed,C,NA,default,46,Yes,NA,Female,English,NA,41
773,default,block2,jon,projective,0.02,11048,know,47,know,C,NA,default,46,Yes,NA,Female,English,NA,42
773,default,block2,kids,projective,0.98,7597,MC,48,MC,MC,NA,default,46,Yes,NA,Female,English,NA,43
773,default,block2,grace,projective,0.01,9883,admit,49,admit,C,NA,default,46,Yes,NA,Female,English,NA,44
773,default,block2,pizza,projective,0.99,6331,MC,50,MC,MC,NA,default,46,Yes,NA,Female,English,NA,45
773,default,block2,tony,projective,0.03,12056,say,51,say,C,NA,default,46,Yes,NA,Female,English,NA,46
773,default,block2,isabella,projective,0.02,21183,reveal,52,reveal,C,NA,default,46,Yes,NA,Female,English,NA,47
773,default,block2,emily,projective,0.02,11245,see,53,see,C,NA,default,46,Yes,NA,Female,English,NA,48
773,default,block2,emma,projective,0.01,30853,prove,54,prove,C,NA,default,46,Yes,NA,Female,English,NA,49
773,default,block2,zoe,projective,0.02,15903,confirm,55,confirm,C,NA,default,46,Yes,NA,Female,English,NA,50
773,default,block2,olivia,projective,0.02,10385,discover,56,discover,C,NA,default,46,Yes,NA,Female,English,NA,51
773,default,block2,josie,projective,0.03,9630,establish,57,establish,C,NA,default,46,Yes,NA,Female,English,NA,52
829,default,block1,jackson,projective,0.08,12874,reveal,5,reveal,C,NA,default,24,Yes,N/A,Female,English,NA,1
829,default,block1,olivia,projective,0.58,14835,be_annoyed,6,be_annoyed,C,NA,default,24,Yes,N/A,Female,English,NA,2
829,default,block1,charley,projective,0.37,10521,demonstrate,7,demonstrate,C,NA,default,24,Yes,N/A,Female,English,NA,3
829,default,block1,sophia,projective,0.46,8646,be_right,8,be_right,C,NA,default,24,Yes,N/A,Female,English,NA,4
829,default,block1,kids,projective,0.97,15737,MC,9,MC,MC,NA,default,24,Yes,N/A,Female,English,NA,5
829,default,block1,hat,projective,0.96,5787,MC,10,MC,MC,NA,default,24,Yes,N/A,Female,English,NA,6
829,default,block1,zoe,projective,0.49,8469,see,11,see,C,NA,default,24,Yes,N/A,Female,English,NA,7
829,default,block1,owen,projective,0.58,9639,suggest,12,suggest,C,NA,default,24,Yes,N/A,Female,English,NA,8
829,default,block1,emma,projective,0.42,7386,prove,13,prove,C,NA,default,24,Yes,N/A,Female,English,NA,9
829,default,block1,frank,projective,0.74,8102,admit,14,admit,C,NA,default,24,Yes,N/A,Female,English,NA,10
829,default,block1,danny,projective,0.95,14286,know,15,know,C,NA,default,24,Yes,N/A,Female,English,NA,11
829,default,block1,jayden,projective,0.49,7457,establish,16,establish,C,NA,default,24,Yes,N/A,Female,English,NA,12
829,default,block1,pizza,projective,0.98,11225,MC,17,MC,MC,NA,default,24,Yes,N/A,Female,English,NA,13
829,default,block1,josh,projective,0.7,6993,confirm,18,confirm,C,NA,default,24,Yes,N/A,Female,English,NA,14
829,default,block1,emily,projective,0.67,6361,think,19,think,C,NA,default,24,Yes,N/A,Female,English,NA,15
829,default,block1,jon,projective,0.74,5185,announce,20,announce,C,NA,default,24,Yes,N/A,Female,English,NA,16
829,default,block1,garage,projective,0.97,5494,MC,21,MC,MC,NA,default,24,Yes,N/A,Female,English,NA,17
829,default,block1,muffins,projective,0.97,4417,MC,22,MC,MC,NA,default,24,Yes,N/A,Female,English,NA,18
829,default,block1,isabella,projective,0.66,7737,discover,23,discover,C,NA,default,24,Yes,N/A,Female,English,NA,19
829,default,block1,grace,projective,0.77,11667,confess,24,confess,C,NA,default,24,Yes,N/A,Female,English,NA,20
829,default,block1,mia,projective,0.21,9526,pretend,25,pretend,C,NA,default,24,Yes,N/A,Female,English,NA,21
829,default,block1,josie,projective,0.82,9057,acknowledge,26,acknowledge,C,NA,default,24,Yes,N/A,Female,English,NA,22
829,default,block1,ballet,projective,0.98,5377,MC,27,MC,MC,NA,default,24,Yes,N/A,Female,English,NA,23
829,default,block1,julian,projective,0.85,12675,hear,28,hear,C,NA,default,24,Yes,N/A,Female,English,NA,24
829,default,block1,tony,projective,0.98,8450,inform,29,inform,C,NA,default,24,Yes,N/A,Female,English,NA,25
829,default,block1,mary,projective,0.5,14044,say,30,say,C,NA,default,24,Yes,N/A,Female,English,NA,26
829,default,block2,danny,ai,0.83,23237,know,32,know,C,NA,default,24,Yes,N/A,Female,English,NA,27
829,default,block2,mary,ai,0.52,11148,say,33,say,C,NA,default,24,Yes,N/A,Female,English,NA,28
829,default,block2,olivia,ai,0.88,6737,be_annoyed,34,be_annoyed,C,NA,default,24,Yes,N/A,Female,English,NA,29
829,default,block2,pizza,ai,0.010000000000000009,6466,MC,35,MC,MC,NA,default,24,Yes,N/A,Female,English,NA,30
829,default,block2,muffins,ai,0.050000000000000044,15191,MC,36,MC,MC,NA,default,24,Yes,N/A,Female,English,NA,31
829,default,block2,frank,ai,0.85,6006,admit,37,admit,C,NA,default,24,Yes,N/A,Female,English,NA,32
829,default,block2,zoe,ai,0.9,7190,see,38,see,C,NA,default,24,Yes,N/A,Female,English,NA,33
829,default,block2,mia,ai,0.92,6127,pretend,39,pretend,C,NA,default,24,Yes,N/A,Female,English,NA,34
829,default,block2,hat,ai,0.020000000000000018,5588,MC,40,MC,MC,NA,default,24,Yes,N/A,Female,English,NA,35
829,default,block2,jackson,ai,0.95,7928,reveal,41,reveal,C,NA,default,24,Yes,N/A,Female,English,NA,36
829,default,block2,tony,ai,0.87,5203,inform,42,inform,C,NA,default,24,Yes,N/A,Female,English,NA,37
829,default,block2,jon,ai,0.9299999999999999,7064,announce,43,announce,C,NA,default,24,Yes,N/A,Female,English,NA,38
829,default,block2,emily,ai,0.92,8062,think,44,think,C,NA,default,24,Yes,N/A,Female,English,NA,39
829,default,block2,jayden,ai,0.88,6387,establish,45,establish,C,NA,default,24,Yes,N/A,Female,English,NA,40
829,default,block2,grace,ai,0.88,6698,confess,46,confess,C,NA,default,24,Yes,N/A,Female,English,NA,41
829,default,block2,julian,ai,0.91,6735,hear,47,hear,C,NA,default,24,Yes,N/A,Female,English,NA,42
829,default,block2,josh,ai,0.87,7517,confirm,48,confirm,C,NA,default,24,Yes,N/A,Female,English,NA,43
829,default,block2,josie,ai,0.91,7711,acknowledge,49,acknowledge,C,NA,default,24,Yes,N/A,Female,English,NA,44
829,default,block2,owen,ai,0.85,7922,suggest,50,suggest,C,NA,default,24,Yes,N/A,Female,English,NA,45
829,default,block2,kids,ai,0.020000000000000018,6451,MC,51,MC,MC,NA,default,24,Yes,N/A,Female,English,NA,46
829,default,block2,garage,ai,0.010000000000000009,7171,MC,52,MC,MC,NA,default,24,Yes,N/A,Female,English,NA,47
829,default,block2,isabella,ai,0.85,6397,discover,53,discover,C,NA,default,24,Yes,N/A,Female,English,NA,48
829,default,block2,sophia,ai,0.87,6005,be_right,54,be_right,C,NA,default,24,Yes,N/A,Female,English,NA,49
829,default,block2,emma,ai,0.91,7054,prove,55,prove,C,NA,default,24,Yes,N/A,Female,English,NA,50
829,default,block2,ballet,ai,0.020000000000000018,3644,MC,56,MC,MC,NA,default,24,Yes,N/A,Female,English,NA,51
829,default,block2,charley,ai,0.91,5365,demonstrate,57,demonstrate,C,NA,default,24,Yes,N/A,Female,English,NA,52
924,default,block1,charley,ai,1,35095,reveal,5,reveal,C,NA,default,22,Yes,NA,Male,English,NA,1
924,default,block1,mia,ai,0.91,18447,say,6,say,C,NA,default,22,Yes,NA,Male,English,NA,2
924,default,block1,owen,ai,1,24455,acknowledge,7,acknowledge,C,NA,default,22,Yes,NA,Male,English,NA,3
924,default,block1,grace,ai,1,19554,pretend,8,pretend,C,NA,default,22,Yes,NA,Male,English,NA,4
924,default,block1,kids,ai,0,16027,MC,9,MC,MC,NA,default,22,Yes,NA,Male,English,NA,5
924,default,block1,sophia,ai,1,5801,be_right,10,be_right,C,NA,default,22,Yes,NA,Male,English,NA,6
924,default,block1,garage,ai,0,3925,MC,11,MC,MC,NA,default,22,Yes,NA,Male,English,NA,7
924,default,block1,jayden,ai,1,5847,inform,12,inform,C,NA,default,22,Yes,NA,Male,English,NA,8
924,default,block1,zoe,ai,1,5456,see,13,see,C,NA,default,22,Yes,NA,Male,English,NA,9
924,default,block1,pizza,ai,0,5817,MC,14,MC,MC,NA,default,22,Yes,NA,Male,English,NA,10
924,default,block1,emily,ai,1,10668,discover,15,discover,C,NA,default,22,Yes,NA,Male,English,NA,11
924,default,block1,danny,ai,1,3873,establish,16,establish,C,NA,default,22,Yes,NA,Male,English,NA,12
924,default,block1,josh,ai,1,5106,prove,17,prove,C,NA,default,22,Yes,NA,Male,English,NA,13
924,default,block1,josie,ai,1,15129,hear,18,hear,C,NA,default,22,Yes,NA,Male,English,NA,14
924,default,block1,julian,ai,1,8110,confess,19,confess,C,NA,default,22,Yes,NA,Male,English,NA,15
924,default,block1,tony,ai,1,7517,suggest,20,suggest,C,NA,default,22,Yes,NA,Male,English,NA,16
924,default,block1,hat,ai,0,3754,MC,21,MC,MC,NA,default,22,Yes,NA,Male,English,NA,17
924,default,block1,emma,ai,1,15070,know,22,know,C,NA,default,22,Yes,NA,Male,English,NA,18
924,default,block1,ballet,ai,0,5210,MC,23,MC,MC,NA,default,22,Yes,NA,Male,English,NA,19
924,default,block1,jackson,ai,1,11483,be_annoyed,24,be_annoyed,C,NA,default,22,Yes,NA,Male,English,NA,20
924,default,block1,muffins,ai,0,3003,MC,25,MC,MC,NA,default,22,Yes,NA,Male,English,NA,21
924,default,block1,jon,ai,1,6683,think,26,think,C,NA,default,22,Yes,NA,Male,English,NA,22
924,default,block1,olivia,ai,1,4501,demonstrate,27,demonstrate,C,NA,default,22,Yes,NA,Male,English,NA,23
924,default,block1,mary,ai,1,6157,admit,28,admit,C,NA,default,22,Yes,NA,Male,English,NA,24
924,default,block1,frank,ai,1,3929,announce,29,announce,C,NA,default,22,Yes,NA,Male,English,NA,25
924,default,block1,isabella,ai,1,6719,confirm,30,confirm,C,NA,default,22,Yes,NA,Male,English,NA,26
924,default,block2,tony,projective,0.36,29516,suggest,32,suggest,C,NA,default,22,Yes,NA,Male,English,NA,27
924,default,block2,garage,projective,1,16905,MC,33,MC,MC,NA,default,22,Yes,NA,Male,English,NA,28
924,default,block2,josie,projective,0.56,20043,hear,34,hear,C,NA,default,22,Yes,NA,Male,English,NA,29
924,default,block2,pizza,projective,1,3139,MC,35,MC,MC,NA,default,22,Yes,NA,Male,English,NA,30
924,default,block2,hat,projective,1,5121,MC,36,MC,MC,NA,default,22,Yes,NA,Male,English,NA,31
924,default,block2,mia,projective,0.41,10104,say,37,say,C,NA,default,22,Yes,NA,Male,English,NA,32
924,default,block2,jayden,projective,0.29,9166,inform,38,inform,C,NA,default,22,Yes,NA,Male,English,NA,33
924,default,block2,mary,projective,0.78,7645,admit,39,admit,C,NA,default,22,Yes,NA,Male,English,NA,34
924,default,block2,jackson,projective,0.88,8341,be_annoyed,40,be_annoyed,C,NA,default,22,Yes,NA,Male,English,NA,35
924,default,block2,sophia,projective,0.26,6918,be_right,41,be_right,C,NA,default,22,Yes,NA,Male,English,NA,36
924,default,block2,ballet,projective,1,3150,MC,42,MC,MC,NA,default,22,Yes,NA,Male,English,NA,37
924,default,block2,julian,projective,0.75,7749,confess,43,confess,C,NA,default,22,Yes,NA,Male,English,NA,38
924,default,block2,jon,projective,0.29,10183,think,44,think,C,NA,default,22,Yes,NA,Male,English,NA,39
924,default,block2,kids,projective,1,4767,MC,45,MC,MC,NA,default,22,Yes,NA,Male,English,NA,40
924,default,block2,zoe,projective,0.84,6473,see,46,see,C,NA,default,22,Yes,NA,Male,English,NA,41
924,default,block2,muffins,projective,1,2978,MC,47,MC,MC,NA,default,22,Yes,NA,Male,English,NA,42
924,default,block2,josh,projective,0.4,9712,prove,48,prove,C,NA,default,22,Yes,NA,Male,English,NA,43
924,default,block2,charley,projective,1,6276,reveal,49,reveal,C,NA,default,22,Yes,NA,Male,English,NA,44
924,default,block2,isabella,projective,0.87,11053,confirm,50,confirm,C,NA,default,22,Yes,NA,Male,English,NA,45
924,default,block2,grace,projective,0.18,11249,pretend,51,pretend,C,NA,default,22,Yes,NA,Male,English,NA,46
924,default,block2,frank,projective,0.57,13119,announce,52,announce,C,NA,default,22,Yes,NA,Male,English,NA,47
924,default,block2,owen,projective,0.99,11415,acknowledge,53,acknowledge,C,NA,default,22,Yes,NA,Male,English,NA,48
924,default,block2,danny,projective,0.5,16220,establish,54,establish,C,NA,default,22,Yes,NA,Male,English,NA,49
924,default,block2,emily,projective,0.88,6905,discover,55,discover,C,NA,default,22,Yes,NA,Male,English,NA,50
924,default,block2,olivia,projective,0.8,9925,demonstrate,56,demonstrate,C,NA,default,22,Yes,NA,Male,English,NA,51
924,default,block2,emma,projective,0.94,6675,know,57,know,C,NA,default,22,Yes,NA,Male,English,NA,52
782,default,block1,frank,projective,0,16048,announce,5,announce,C,NA,default,22,Yes,NA,Male,"English, Chinese",NA,1
782,default,block1,isabella,projective,1,9820,acknowledge,6,acknowledge,C,NA,default,22,Yes,NA,Male,"English, Chinese",NA,2
782,default,block1,hat,projective,1,4806,MC,7,MC,MC,NA,default,22,Yes,NA,Male,"English, Chinese",NA,3
782,default,block1,danny,projective,0,12782,pretend,8,pretend,C,NA,default,22,Yes,NA,Male,"English, Chinese",NA,4
782,default,block1,muffins,projective,0.97,9389,MC,9,MC,MC,NA,default,22,Yes,NA,Male,"English, Chinese",NA,5
782,default,block1,josh,projective,1,8545,establish,10,establish,C,NA,default,22,Yes,NA,Male,"English, Chinese",NA,6
782,default,block1,grace,projective,0,21632,be_right,11,be_right,C,NA,default,22,Yes,NA,Male,"English, Chinese",NA,7
782,default,block1,jon,projective,0,15000,prove,12,prove,C,NA,default,22,Yes,NA,Male,"English, Chinese",NA,8
782,default,block1,charley,projective,0,10062,say,13,say,C,NA,default,22,Yes,NA,Male,"English, Chinese",NA,9
782,default,block1,josie,projective,1,27940,inform,14,inform,C,NA,default,22,Yes,NA,Male,"English, Chinese",NA,10
782,default,block1,tony,projective,0.99,9659,confess,15,confess,C,NA,default,22,Yes,NA,Male,"English, Chinese",NA,11
782,default,block1,julian,projective,0.88,7985,hear,16,hear,C,NA,default,22,Yes,NA,Male,"English, Chinese",NA,12
782,default,block1,pizza,projective,1,5632,MC,17,MC,MC,NA,default,22,Yes,NA,Male,"English, Chinese",NA,13
782,default,block1,kids,projective,1,7434,MC,18,MC,MC,NA,default,22,Yes,NA,Male,"English, Chinese",NA,14
782,default,block1,jackson,projective,0.88,5215,discover,19,discover,C,NA,default,22,Yes,NA,Male,"English, Chinese",NA,15
782,default,block1,ballet,projective,1,3651,MC,20,MC,MC,NA,default,22,Yes,NA,Male,"English, Chinese",NA,16
782,default,block1,sophia,projective,0.87,13026,demonstrate,21,demonstrate,C,NA,default,22,Yes,NA,Male,"English, Chinese",NA,17
782,default,block1,olivia,projective,0.36,8634,think,22,think,C,NA,default,22,Yes,NA,Male,"English, Chinese",NA,18
782,default,block1,owen,projective,0.81,12123,see,23,see,C,NA,default,22,Yes,NA,Male,"English, Chinese",NA,19
