workerid,proliferate.condition.x,block,content,question_type,response,rt,short_trigger,slide_number_in_experiment,trigger,trigger_class,error.x,proliferate.condition.y,age,american,comments,gender,language,error.y,trial
2186,default,block1,sophia,projective,1,21201,announce,5,announce,C,NA,default,37,Yes,I was not sure which questions were the attention checks that was mentioned with be present but I did my best to analyze each question honestly.,Male,English,NA,1
2186,default,block1,isabella,projective,1,24076,be_annoyed,6,be_annoyed,C,NA,default,37,Yes,I was not sure which questions were the attention checks that was mentioned with be present but I did my best to analyze each question honestly.,Male,English,NA,2
2186,default,block1,pizza,projective,1,9487,MC,7,MC,MC,NA,default,37,Yes,I was not sure which questions were the attention checks that was mentioned with be present but I did my best to analyze each question honestly.,Male,English,NA,3
2186,default,block1,julian,projective,0.61,12130,establish,8,establish,C,NA,default,37,Yes,I was not sure which questions were the attention checks that was mentioned with be present but I did my best to analyze each question honestly.,Male,English,NA,4
2186,default,block1,jayden,projective,0.79,11019,confirm,9,confirm,C,NA,default,37,Yes,I was not sure which questions were the attention checks that was mentioned with be present but I did my best to analyze each question honestly.,Male,English,NA,5
2186,default,block1,josh,projective,0.34,9361,admit,10,admit,C,NA,default,37,Yes,I was not sure which questions were the attention checks that was mentioned with be present but I did my best to analyze each question honestly.,Male,English,NA,6
2186,default,block1,hat,projective,1,5818,MC,11,MC,MC,NA,default,37,Yes,I was not sure which questions were the attention checks that was mentioned with be present but I did my best to analyze each question honestly.,Male,English,NA,7
2186,default,block1,ballet,projective,1,6169,MC,12,MC,MC,NA,default,37,Yes,I was not sure which questions were the attention checks that was mentioned with be present but I did my best to analyze each question honestly.,Male,English,NA,8
2186,default,block1,jackson,projective,0.24,10747,be_right,13,be_right,C,NA,default,37,Yes,I was not sure which questions were the attention checks that was mentioned with be present but I did my best to analyze each question honestly.,Male,English,NA,9
2186,default,block1,olivia,projective,0,8189,pretend,14,pretend,C,NA,default,37,Yes,I was not sure which questions were the attention checks that was mentioned with be present but I did my best to analyze each question honestly.,Male,English,NA,10
2186,default,block1,emily,projective,0,7086,suggest,15,suggest,C,NA,default,37,Yes,I was not sure which questions were the attention checks that was mentioned with be present but I did my best to analyze each question honestly.,Male,English,NA,11
2186,default,block1,kids,projective,1,15451,MC,16,MC,MC,NA,default,37,Yes,I was not sure which questions were the attention checks that was mentioned with be present but I did my best to analyze each question honestly.,Male,English,NA,12
2186,default,block1,emma,projective,0.7,8474,prove,17,prove,C,NA,default,37,Yes,I was not sure which questions were the attention checks that was mentioned with be present but I did my best to analyze each question honestly.,Male,English,NA,13
2186,default,block1,mia,projective,0,5645,hear,18,hear,C,NA,default,37,Yes,I was not sure which questions were the attention checks that was mentioned with be present but I did my best to analyze each question honestly.,Male,English,NA,14
2186,default,block1,jon,projective,0.18,7467,see,19,see,C,NA,default,37,Yes,I was not sure which questions were the attention checks that was mentioned with be present but I did my best to analyze each question honestly.,Male,English,NA,15
2186,default,block1,muffins,projective,1,5941,MC,20,MC,MC,NA,default,37,Yes,I was not sure which questions were the attention checks that was mentioned with be present but I did my best to analyze each question honestly.,Male,English,NA,16
2186,default,block1,mary,projective,0,7332,confess,21,confess,C,NA,default,37,Yes,I was not sure which questions were the attention checks that was mentioned with be present but I did my best to analyze each question honestly.,Male,English,NA,17
2186,default,block1,danny,projective,1,9082,discover,22,discover,C,NA,default,37,Yes,I was not sure which questions were the attention checks that was mentioned with be present but I did my best to analyze each question honestly.,Male,English,NA,18
2186,default,block1,owen,projective,0.73,6632,acknowledge,23,acknowledge,C,NA,default,37,Yes,I was not sure which questions were the attention checks that was mentioned with be present but I did my best to analyze each question honestly.,Male,English,NA,19
2186,default,block1,zoe,projective,0.27,9128,demonstrate,24,demonstrate,C,NA,default,37,Yes,I was not sure which questions were the attention checks that was mentioned with be present but I did my best to analyze each question honestly.,Male,English,NA,20
2186,default,block1,garage,projective,1,11036,MC,25,MC,MC,NA,default,37,Yes,I was not sure which questions were the attention checks that was mentioned with be present but I did my best to analyze each question honestly.,Male,English,NA,21
2186,default,block1,tony,projective,1,10977,inform,26,inform,C,NA,default,37,Yes,I was not sure which questions were the attention checks that was mentioned with be present but I did my best to analyze each question honestly.,Male,English,NA,22
2186,default,block1,josie,projective,1,6229,know,27,know,C,NA,default,37,Yes,I was not sure which questions were the attention checks that was mentioned with be present but I did my best to analyze each question honestly.,Male,English,NA,23
2186,default,block1,grace,projective,0,7132,think,28,think,C,NA,default,37,Yes,I was not sure which questions were the attention checks that was mentioned with be present but I did my best to analyze each question honestly.,Male,English,NA,24
2186,default,block1,frank,projective,1,5469,reveal,29,reveal,C,NA,default,37,Yes,I was not sure which questions were the attention checks that was mentioned with be present but I did my best to analyze each question honestly.,Male,English,NA,25
2186,default,block1,charley,projective,0,7377,say,30,say,C,NA,default,37,Yes,I was not sure which questions were the attention checks that was mentioned with be present but I did my best to analyze each question honestly.,Male,English,NA,26
2186,default,block2,tony,ai,0,14084,inform,32,inform,C,NA,default,37,Yes,I was not sure which questions were the attention checks that was mentioned with be present but I did my best to analyze each question honestly.,Male,English,NA,27
2186,default,block2,jackson,ai,0,6662,be_right,33,be_right,C,NA,default,37,Yes,I was not sure which questions were the attention checks that was mentioned with be present but I did my best to analyze each question honestly.,Male,English,NA,28
2186,default,block2,sophia,ai,0.20999999999999996,7369,announce,34,announce,C,NA,default,37,Yes,I was not sure which questions were the attention checks that was mentioned with be present but I did my best to analyze each question honestly.,Male,English,NA,29
2186,default,block2,isabella,ai,1,8091,be_annoyed,35,be_annoyed,C,NA,default,37,Yes,I was not sure which questions were the attention checks that was mentioned with be present but I did my best to analyze each question honestly.,Male,English,NA,30
2186,default,block2,mary,ai,0.71,5701,confess,36,confess,C,NA,default,37,Yes,I was not sure which questions were the attention checks that was mentioned with be present but I did my best to analyze each question honestly.,Male,English,NA,31
2186,default,block2,josie,ai,1,7606,know,37,know,C,NA,default,37,Yes,I was not sure which questions were the attention checks that was mentioned with be present but I did my best to analyze each question honestly.,Male,English,NA,32
2186,default,block2,jayden,ai,0,4867,confirm,38,confirm,C,NA,default,37,Yes,I was not sure which questions were the attention checks that was mentioned with be present but I did my best to analyze each question honestly.,Male,English,NA,33
2186,default,block2,pizza,ai,0,13614,MC,39,MC,MC,NA,default,37,Yes,I was not sure which questions were the attention checks that was mentioned with be present but I did my best to analyze each question honestly.,Male,English,NA,34
2186,default,block2,emma,ai,0.39,7755,prove,40,prove,C,NA,default,37,Yes,I was not sure which questions were the attention checks that was mentioned with be present but I did my best to analyze each question honestly.,Male,English,NA,35
2186,default,block2,josh,ai,1,7059,admit,41,admit,C,NA,default,37,Yes,I was not sure which questions were the attention checks that was mentioned with be present but I did my best to analyze each question honestly.,Male,English,NA,36
2186,default,block2,frank,ai,0,4712,reveal,42,reveal,C,NA,default,37,Yes,I was not sure which questions were the attention checks that was mentioned with be present but I did my best to analyze each question honestly.,Male,English,NA,37
2186,default,block2,danny,ai,0.020000000000000018,5511,discover,43,discover,C,NA,default,37,Yes,I was not sure which questions were the attention checks that was mentioned with be present but I did my best to analyze each question honestly.,Male,English,NA,38
2186,default,block2,olivia,ai,1,5829,pretend,44,pretend,C,NA,default,37,Yes,I was not sure which questions were the attention checks that was mentioned with be present but I did my best to analyze each question honestly.,Male,English,NA,39
2186,default,block2,charley,ai,0,3787,say,45,say,C,NA,default,37,Yes,I was not sure which questions were the attention checks that was mentioned with be present but I did my best to analyze each question honestly.,Male,English,NA,40
2186,default,block2,muffins,ai,0.28,6673,MC,46,MC,MC,NA,default,37,Yes,I was not sure which questions were the attention checks that was mentioned with be present but I did my best to analyze each question honestly.,Male,English,NA,41
2186,default,block2,kids,ai,1,5029,MC,47,MC,MC,NA,default,37,Yes,I was not sure which questions were the attention checks that was mentioned with be present but I did my best to analyze each question honestly.,Male,English,NA,42
2186,default,block2,zoe,ai,1,3837,demonstrate,48,demonstrate,C,NA,default,37,Yes,I was not sure which questions were the attention checks that was mentioned with be present but I did my best to analyze each question honestly.,Male,English,NA,43
2186,default,block2,emily,ai,0,4650,suggest,49,suggest,C,NA,default,37,Yes,I was not sure which questions were the attention checks that was mentioned with be present but I did my best to analyze each question honestly.,Male,English,NA,44
2186,default,block2,mia,ai,0,3239,hear,50,hear,C,NA,default,37,Yes,I was not sure which questions were the attention checks that was mentioned with be present but I did my best to analyze each question honestly.,Male,English,NA,45
2186,default,block2,jon,ai,0,5557,see,51,see,C,NA,default,37,Yes,I was not sure which questions were the attention checks that was mentioned with be present but I did my best to analyze each question honestly.,Male,English,NA,46
2186,default,block2,grace,ai,0,4235,think,52,think,C,NA,default,37,Yes,I was not sure which questions were the attention checks that was mentioned with be present but I did my best to analyze each question honestly.,Male,English,NA,47
2186,default,block2,garage,ai,1,5929,MC,53,MC,MC,NA,default,37,Yes,I was not sure which questions were the attention checks that was mentioned with be present but I did my best to analyze each question honestly.,Male,English,NA,48
2186,default,block2,hat,ai,0.22999999999999998,6335,MC,54,MC,MC,NA,default,37,Yes,I was not sure which questions were the attention checks that was mentioned with be present but I did my best to analyze each question honestly.,Male,English,NA,49
2186,default,block2,ballet,ai,0,5651,MC,55,MC,MC,NA,default,37,Yes,I was not sure which questions were the attention checks that was mentioned with be present but I did my best to analyze each question honestly.,Male,English,NA,50
2186,default,block2,julian,ai,0.74,4562,establish,56,establish,C,NA,default,37,Yes,I was not sure which questions were the attention checks that was mentioned with be present but I did my best to analyze each question honestly.,Male,English,NA,51
2186,default,block2,owen,ai,0,4895,acknowledge,57,acknowledge,C,NA,default,37,Yes,I was not sure which questions were the attention checks that was mentioned with be present but I did my best to analyze each question honestly.,Male,English,NA,52
2018,default,block1,danny,projective,0.01,4494,pretend,5,pretend,C,NA,default,38,Yes,NA,Female,English,NA,1
2018,default,block1,emily,projective,0.04,6349,demonstrate,6,demonstrate,C,NA,default,38,Yes,NA,Female,English,NA,2
2018,default,block1,mary,projective,0.03,4126,say,7,say,C,NA,default,38,Yes,NA,Female,English,NA,3
2018,default,block1,grace,projective,0.01,4100,think,8,think,C,NA,default,38,Yes,NA,Female,English,NA,4
2018,default,block1,jayden,projective,0.01,3367,prove,9,prove,C,NA,default,38,Yes,NA,Female,English,NA,5
2018,default,block1,julian,projective,0.25,10086,reveal,10,reveal,C,NA,default,38,Yes,NA,Female,English,NA,6
2018,default,block1,zoe,projective,0.36,4321,confirm,11,confirm,C,NA,default,38,Yes,NA,Female,English,NA,7
2018,default,block1,josie,projective,0.19,5184,establish,12,establish,C,NA,default,38,Yes,NA,Female,English,NA,8
2018,default,block1,sophia,projective,0.44,5695,admit,13,admit,C,NA,default,38,Yes,NA,Female,English,NA,9
2018,default,block1,olivia,projective,0.66,4125,know,14,know,C,NA,default,38,Yes,NA,Female,English,NA,10
2018,default,block1,ballet,projective,0.94,3679,MC,15,MC,MC,NA,default,38,Yes,NA,Female,English,NA,11
2018,default,block1,mia,projective,0.55,4634,discover,16,discover,C,NA,default,38,Yes,NA,Female,English,NA,12
2018,default,block1,garage,projective,0.98,6133,MC,17,MC,MC,NA,default,38,Yes,NA,Female,English,NA,13
2018,default,block1,frank,projective,0.75,10552,inform,18,inform,C,NA,default,38,Yes,NA,Female,English,NA,14
2018,default,block1,charley,projective,0.86,6554,hear,19,hear,C,NA,default,38,Yes,NA,Female,English,NA,15
2018,default,block1,josh,projective,0.01,8793,suggest,20,suggest,C,NA,default,38,Yes,NA,Female,English,NA,16
2018,default,block1,hat,projective,0.98,5333,MC,21,MC,MC,NA,default,38,Yes,NA,Female,English,NA,17
2018,default,block1,jackson,projective,0.02,4840,be_right,22,be_right,C,NA,default,38,Yes,NA,Female,English,NA,18
2018,default,block1,owen,projective,0.94,18562,be_annoyed,23,be_annoyed,C,NA,default,38,Yes,NA,Female,English,NA,19
2018,default,block1,jon,projective,0.96,12277,acknowledge,24,acknowledge,C,NA,default,38,Yes,NA,Female,English,NA,20
2018,default,block1,isabella,projective,0.79,3537,confess,25,confess,C,NA,default,38,Yes,NA,Female,English,NA,21
2018,default,block1,pizza,projective,0.97,23506,MC,26,MC,MC,NA,default,38,Yes,NA,Female,English,NA,22
2018,default,block1,emma,projective,0.96,6242,see,27,see,C,NA,default,38,Yes,NA,Female,English,NA,23
2018,default,block1,tony,projective,0.93,3028,announce,28,announce,C,NA,default,38,Yes,NA,Female,English,NA,24
2018,default,block1,kids,projective,0.99,3215,MC,29,MC,MC,NA,default,38,Yes,NA,Female,English,NA,25
2018,default,block1,muffins,projective,0.99,4288,MC,30,MC,MC,NA,default,38,Yes,NA,Female,English,NA,26
2018,default,block2,kids,ai,0.10999999999999999,6245,MC,32,MC,MC,NA,default,38,Yes,NA,Female,English,NA,27
2018,default,block2,muffins,ai,0.19999999999999996,5130,MC,33,MC,MC,NA,default,38,Yes,NA,Female,English,NA,28
2018,default,block2,josie,ai,0.06999999999999995,5274,establish,34,establish,C,NA,default,38,Yes,NA,Female,English,NA,29
2018,default,block2,grace,ai,0.5900000000000001,5529,think,35,think,C,NA,default,38,Yes,NA,Female,English,NA,30
2018,default,block2,ballet,ai,0.26,7649,MC,36,MC,MC,NA,default,38,Yes,NA,Female,English,NA,31
2018,default,block2,emma,ai,0.13,16670,see,37,see,C,NA,default,38,Yes,NA,Female,English,NA,32
2018,default,block2,jon,ai,0.020000000000000018,4942,acknowledge,38,acknowledge,C,NA,default,38,Yes,NA,Female,English,NA,33
2018,default,block2,mia,ai,0.020000000000000018,3433,discover,39,discover,C,NA,default,38,Yes,NA,Female,English,NA,34
2018,default,block2,charley,ai,0.010000000000000009,4540,hear,40,hear,C,NA,default,38,Yes,NA,Female,English,NA,35
2018,default,block2,danny,ai,0.22999999999999998,55397,pretend,41,pretend,C,NA,default,38,Yes,NA,Female,English,NA,36
2018,default,block2,isabella,ai,0.09999999999999998,11936,confess,42,confess,C,NA,default,38,Yes,NA,Female,English,NA,37
2018,default,block2,zoe,ai,0.12,16218,confirm,43,confirm,C,NA,default,38,Yes,NA,Female,English,NA,38
2018,default,block2,frank,ai,0.030000000000000027,3462,inform,44,inform,C,NA,default,38,Yes,NA,Female,English,NA,39
2018,default,block2,sophia,ai,0.020000000000000018,3421,admit,45,admit,C,NA,default,38,Yes,NA,Female,English,NA,40
2018,default,block2,olivia,ai,0.020000000000000018,3147,know,46,know,C,NA,default,38,Yes,NA,Female,English,NA,41
2018,default,block2,garage,ai,0.18000000000000005,4935,MC,47,MC,MC,NA,default,38,Yes,NA,Female,English,NA,42
2018,default,block2,emily,ai,0.13,5098,demonstrate,48,demonstrate,C,NA,default,38,Yes,NA,Female,English,NA,43
2018,default,block2,owen,ai,0.27,6600,be_annoyed,49,be_annoyed,C,NA,default,38,Yes,NA,Female,English,NA,44
2018,default,block2,hat,ai,0.07999999999999996,12084,MC,50,MC,MC,NA,default,38,Yes,NA,Female,English,NA,45
2018,default,block2,josh,ai,0.7,8627,suggest,51,suggest,C,NA,default,38,Yes,NA,Female,English,NA,46
2018,default,block2,jackson,ai,0.13,69352,be_right,52,be_right,C,NA,default,38,Yes,NA,Female,English,NA,47
2018,default,block2,mary,ai,0,4808,say,53,say,C,NA,default,38,Yes,NA,Female,English,NA,48
2018,default,block2,jayden,ai,0.10999999999999999,4328,prove,54,prove,C,NA,default,38,Yes,NA,Female,English,NA,49
2018,default,block2,tony,ai,0.020000000000000018,5129,announce,55,announce,C,NA,default,38,Yes,NA,Female,English,NA,50
2018,default,block2,julian,ai,0.010000000000000009,4004,reveal,56,reveal,C,NA,default,38,Yes,NA,Female,English,NA,51
2018,default,block2,pizza,ai,0.71,9210,MC,57,MC,MC,NA,default,38,Yes,NA,Female,English,NA,52
2026,default,block1,charley,ai,0.95,23624,acknowledge,5,acknowledge,C,NA,default,25,Yes,NA,Female,English,NA,1
2026,default,block1,tony,ai,0.69,15362,suggest,6,suggest,C,NA,default,25,Yes,NA,Female,English,NA,2
2026,default,block1,mia,ai,0.6799999999999999,9361,confirm,7,confirm,C,NA,default,25,Yes,NA,Female,English,NA,3
2026,default,block1,isabella,ai,0.81,18198,inform,8,inform,C,NA,default,25,Yes,NA,Female,English,NA,4
2026,default,block1,pizza,ai,0.95,8115,MC,9,MC,MC,NA,default,25,Yes,NA,Female,English,NA,5
2026,default,block1,mary,ai,0.79,5364,think,10,think,C,NA,default,25,Yes,NA,Female,English,NA,6
2026,default,block1,olivia,ai,0.87,11039,pretend,11,pretend,C,NA,default,25,Yes,NA,Female,English,NA,7
2026,default,block1,owen,ai,0.73,9469,admit,12,admit,C,NA,default,25,Yes,NA,Female,English,NA,8
2026,default,block1,sophia,ai,0.8,4979,discover,13,discover,C,NA,default,25,Yes,NA,Female,English,NA,9
2026,default,block1,ballet,ai,0.39,8355,MC,14,MC,MC,NA,default,25,Yes,NA,Female,English,NA,10
2026,default,block1,emily,ai,0.81,6261,reveal,15,reveal,C,NA,default,25,Yes,NA,Female,English,NA,11
2026,default,block1,kids,ai,0.39,7164,MC,16,MC,MC,NA,default,25,Yes,NA,Female,English,NA,12
2026,default,block1,jackson,ai,0.7,6374,say,17,say,C,NA,default,25,Yes,NA,Female,English,NA,13
2026,default,block1,frank,ai,0.35,7235,be_right,18,be_right,C,NA,default,25,Yes,NA,Female,English,NA,14
2026,default,block1,muffins,ai,0.69,6287,MC,19,MC,MC,NA,default,25,Yes,NA,Female,English,NA,15
2026,default,block1,jayden,ai,0.6699999999999999,9000,hear,20,hear,C,NA,default,25,Yes,NA,Female,English,NA,16
2026,default,block1,josh,ai,0.69,5650,know,21,know,C,NA,default,25,Yes,NA,Female,English,NA,17
2026,default,block1,josie,ai,0.61,8991,establish,22,establish,C,NA,default,25,Yes,NA,Female,English,NA,18
2026,default,block1,emma,ai,0.74,7507,announce,23,announce,C,NA,default,25,Yes,NA,Female,English,NA,19
2026,default,block1,zoe,ai,0.6799999999999999,80408,confess,24,confess,C,NA,default,25,Yes,NA,Female,English,NA,20
2026,default,block1,jon,ai,0.73,4298,be_annoyed,25,be_annoyed,C,NA,default,25,Yes,NA,Female,English,NA,21
2026,default,block1,hat,ai,0.33999999999999997,6128,MC,26,MC,MC,NA,default,25,Yes,NA,Female,English,NA,22
2026,default,block1,danny,ai,0.72,6404,see,27,see,C,NA,default,25,Yes,NA,Female,English,NA,23
2026,default,block1,garage,ai,0.36,6660,MC,28,MC,MC,NA,default,25,Yes,NA,Female,English,NA,24
2026,default,block1,julian,ai,0.4,8970,prove,29,prove,C,NA,default,25,Yes,NA,Female,English,NA,25
2026,default,block1,grace,ai,0.39,10038,demonstrate,30,demonstrate,C,NA,default,25,Yes,NA,Female,English,NA,26
2026,default,block2,emma,projective,0.09,20332,announce,32,announce,C,NA,default,25,Yes,NA,Female,English,NA,27
2026,default,block2,muffins,projective,0.98,5642,MC,33,MC,MC,NA,default,25,Yes,NA,Female,English,NA,28
2026,default,block2,jackson,projective,0.07,6782,say,34,say,C,NA,default,25,Yes,NA,Female,English,NA,29
2026,default,block2,pizza,projective,0.95,3399,MC,35,MC,MC,NA,default,25,Yes,NA,Female,English,NA,30
2026,default,block2,jayden,projective,0.05,5462,hear,36,hear,C,NA,default,25,Yes,NA,Female,English,NA,31
2026,default,block2,charley,projective,0.07,4408,acknowledge,37,acknowledge,C,NA,default,25,Yes,NA,Female,English,NA,32
2026,default,block2,garage,projective,0.96,4231,MC,38,MC,MC,NA,default,25,Yes,NA,Female,English,NA,33
2026,default,block2,zoe,projective,0.11,4297,confess,39,confess,C,NA,default,25,Yes,NA,Female,English,NA,34
2026,default,block2,frank,projective,0.3,8021,be_right,40,be_right,C,NA,default,25,Yes,NA,Female,English,NA,35
2026,default,block2,owen,projective,0.34,10636,admit,41,admit,C,NA,default,25,Yes,NA,Female,English,NA,36
2026,default,block2,julian,projective,0.35,5739,prove,42,prove,C,NA,default,25,Yes,NA,Female,English,NA,37
2026,default,block2,josh,projective,0.38,5791,know,43,know,C,NA,default,25,Yes,NA,Female,English,NA,38
2026,default,block2,olivia,projective,0.21,7421,pretend,44,pretend,C,NA,default,25,Yes,NA,Female,English,NA,39
2026,default,block2,mary,projective,0.06,6081,think,45,think,C,NA,default,25,Yes,NA,Female,English,NA,40
2026,default,block2,ballet,projective,0.95,4269,MC,46,MC,MC,NA,default,25,Yes,NA,Female,English,NA,41
2026,default,block2,josie,projective,0.17,7338,establish,47,establish,C,NA,default,25,Yes,NA,Female,English,NA,42
2026,default,block2,emily,projective,0.18,7226,reveal,48,reveal,C,NA,default,25,Yes,NA,Female,English,NA,43
2026,default,block2,grace,projective,0.22,5231,demonstrate,49,demonstrate,C,NA,default,25,Yes,NA,Female,English,NA,44
2026,default,block2,tony,projective,0.19,3548,suggest,50,suggest,C,NA,default,25,Yes,NA,Female,English,NA,45
2026,default,block2,mia,projective,0.18,3508,confirm,51,confirm,C,NA,default,25,Yes,NA,Female,English,NA,46
2026,default,block2,jon,projective,0.65,16889,be_annoyed,52,be_annoyed,C,NA,default,25,Yes,NA,Female,English,NA,47
2026,default,block2,sophia,projective,0.39,6156,discover,53,discover,C,NA,default,25,Yes,NA,Female,English,NA,48
2026,default,block2,danny,projective,0.41,9163,see,54,see,C,NA,default,25,Yes,NA,Female,English,NA,49
2026,default,block2,isabella,projective,0.35,9113,inform,55,inform,C,NA,default,25,Yes,NA,Female,English,NA,50
2026,default,block2,kids,projective,0.98,6287,MC,56,MC,MC,NA,default,25,Yes,NA,Female,English,NA,51
2026,default,block2,hat,projective,0.96,3371,MC,57,MC,MC,NA,default,25,Yes,NA,Female,English,NA,52
2021,default,block1,emma,projective,0.67,13751,hear,5,hear,C,NA,default,56,Yes,NA,Female,English,NA,1
2021,default,block1,josh,projective,0.97,6767,discover,6,discover,C,NA,default,56,Yes,NA,Female,English,NA,2
2021,default,block1,mary,projective,0.34,5895,say,7,say,C,NA,default,56,Yes,NA,Female,English,NA,3
2021,default,block1,isabella,projective,0.97,7647,see,8,see,C,NA,default,56,Yes,NA,Female,English,NA,4
2021,default,block1,josie,projective,0.33,7375,think,9,think,C,NA,default,56,Yes,NA,Female,English,NA,5
2021,default,block1,frank,projective,0.96,4807,know,10,know,C,NA,default,56,Yes,NA,Female,English,NA,6
2021,default,block1,danny,projective,0.98,6192,confess,11,confess,C,NA,default,56,Yes,NA,Female,English,NA,7
2021,default,block1,garage,projective,0.98,6560,MC,12,MC,MC,NA,default,56,Yes,NA,Female,English,NA,8
2021,default,block1,pizza,projective,0.98,5248,MC,13,MC,MC,NA,default,56,Yes,NA,Female,English,NA,9
2021,default,block1,grace,projective,0.7,7548,acknowledge,14,acknowledge,C,NA,default,56,Yes,NA,Female,English,NA,10
2021,default,block1,muffins,projective,0.99,3243,MC,15,MC,MC,NA,default,56,Yes,NA,Female,English,NA,11
2021,default,block1,olivia,projective,0.27,7176,confirm,16,confirm,C,NA,default,56,Yes,NA,Female,English,NA,12
2021,default,block1,jon,projective,0.49,4535,reveal,17,reveal,C,NA,default,56,Yes,NA,Female,English,NA,13
2021,default,block1,owen,projective,0.21,5264,demonstrate,18,demonstrate,C,NA,default,56,Yes,NA,Female,English,NA,14
2021,default,block1,hat,projective,0.98,4784,MC,19,MC,MC,NA,default,56,Yes,NA,Female,English,NA,15
2021,default,block1,mia,projective,0.35,8121,announce,20,announce,C,NA,default,56,Yes,NA,Female,English,NA,16
2021,default,block1,zoe,projective,0.57,8031,establish,21,establish,C,NA,default,56,Yes,NA,Female,English,NA,17
2021,default,block1,tony,projective,0.62,5352,be_annoyed,22,be_annoyed,C,NA,default,56,Yes,NA,Female,English,NA,18
2021,default,block1,charley,projective,0.21,5760,be_right,23,be_right,C,NA,default,56,Yes,NA,Female,English,NA,19
2021,default,block1,ballet,projective,0.98,3212,MC,24,MC,MC,NA,default,56,Yes,NA,Female,English,NA,20
2021,default,block1,jackson,projective,0.37,10340,pretend,25,pretend,C,NA,default,56,Yes,NA,Female,English,NA,21
2021,default,block1,kids,projective,0.98,5604,MC,26,MC,MC,NA,default,56,Yes,NA,Female,English,NA,22
2021,default,block1,julian,projective,0.3,5620,admit,27,admit,C,NA,default,56,Yes,NA,Female,English,NA,23
2021,default,block1,sophia,projective,0.29,6448,inform,28,inform,C,NA,default,56,Yes,NA,Female,English,NA,24
2021,default,block1,jayden,projective,0.37,5412,suggest,29,suggest,C,NA,default,56,Yes,NA,Female,English,NA,25
2021,default,block1,emily,projective,0.49,7452,prove,30,prove,C,NA,default,56,Yes,NA,Female,English,NA,26
2021,default,block2,olivia,ai,0.6,8703,confirm,32,confirm,C,NA,default,56,Yes,NA,Female,English,NA,27
2021,default,block2,sophia,ai,0.75,7512,inform,33,inform,C,NA,default,56,Yes,NA,Female,English,NA,28
2021,default,block2,owen,ai,0.98,6696,demonstrate,34,demonstrate,C,NA,default,56,Yes,NA,Female,English,NA,29
2021,default,block2,danny,ai,0.98,7008,confess,35,confess,C,NA,default,56,Yes,NA,Female,English,NA,30
2021,default,block2,pizza,ai,0.040000000000000036,6095,MC,36,MC,MC,NA,default,56,Yes,NA,Female,English,NA,31
2021,default,block2,isabella,ai,0.97,5472,see,37,see,C,NA,default,56,Yes,NA,Female,English,NA,32
2021,default,block2,emily,ai,0.98,4168,prove,38,prove,C,NA,default,56,Yes,NA,Female,English,NA,33
2021,default,block2,jackson,ai,0.99,4305,pretend,39,pretend,C,NA,default,56,Yes,NA,Female,English,NA,34
2021,default,block2,frank,ai,0.99,3616,know,40,know,C,NA,default,56,Yes,NA,Female,English,NA,35
2021,default,block2,garage,ai,0.040000000000000036,6089,MC,41,MC,MC,NA,default,56,Yes,NA,Female,English,NA,36
2021,default,block2,josie,ai,0.91,4926,think,42,think,C,NA,default,56,Yes,NA,Female,English,NA,37
2021,default,block2,tony,ai,0.6,7369,be_annoyed,43,be_annoyed,C,NA,default,56,Yes,NA,Female,English,NA,38
2021,default,block2,zoe,ai,0.97,6223,establish,44,establish,C,NA,default,56,Yes,NA,Female,English,NA,39
2021,default,block2,hat,ai,0.030000000000000027,2692,MC,45,MC,MC,NA,default,56,Yes,NA,Female,English,NA,40
2021,default,block2,josh,ai,0.78,7900,discover,46,discover,C,NA,default,56,Yes,NA,Female,English,NA,41
2021,default,block2,kids,ai,0.040000000000000036,3872,MC,47,MC,MC,NA,default,56,Yes,NA,Female,English,NA,42
2021,default,block2,mia,ai,0.69,4638,announce,48,announce,C,NA,default,56,Yes,NA,Female,English,NA,43
2021,default,block2,ballet,ai,0.010000000000000009,4169,MC,49,MC,MC,NA,default,56,Yes,NA,Female,English,NA,44
2021,default,block2,muffins,ai,0.030000000000000027,3368,MC,50,MC,MC,NA,default,56,Yes,NA,Female,English,NA,45
2021,default,block2,charley,ai,0.35,5456,be_right,51,be_right,C,NA,default,56,Yes,NA,Female,English,NA,46
2021,default,block2,grace,ai,0.91,4832,acknowledge,52,acknowledge,C,NA,default,56,Yes,NA,Female,English,NA,47
2021,default,block2,jayden,ai,0.8200000000000001,2976,suggest,53,suggest,C,NA,default,56,Yes,NA,Female,English,NA,48
2021,default,block2,jon,ai,0.87,3856,reveal,54,reveal,C,NA,default,56,Yes,NA,Female,English,NA,49
2021,default,block2,julian,ai,0.92,10312,admit,55,admit,C,NA,default,56,Yes,NA,Female,English,NA,50
2021,default,block2,emma,ai,0.75,4940,hear,56,hear,C,NA,default,56,Yes,NA,Female,English,NA,51
2021,default,block2,mary,ai,0.83,3540,say,57,say,C,NA,default,56,Yes,NA,Female,English,NA,52
2243,default,block1,josh,ai,0.5700000000000001,10776,see,5,see,C,NA,default,25,Yes,NA,Female,English,NA,1
2243,default,block1,frank,ai,0.6,5017,establish,6,establish,C,NA,default,25,Yes,NA,Female,English,NA,2
2243,default,block1,muffins,ai,0.39,5196,MC,7,MC,MC,NA,default,25,Yes,NA,Female,English,NA,3
2243,default,block1,hat,ai,0.020000000000000018,5422,MC,8,MC,MC,NA,default,25,Yes,NA,Female,English,NA,4
2243,default,block1,garage,ai,0.010000000000000009,3981,MC,9,MC,MC,NA,default,25,Yes,NA,Female,English,NA,5
2243,default,block1,jayden,ai,0.47,9318,demonstrate,10,demonstrate,C,NA,default,25,Yes,NA,Female,English,NA,6
2243,default,block1,grace,ai,0.42000000000000004,4853,confirm,11,confirm,C,NA,default,25,Yes,NA,Female,English,NA,7
2243,default,block1,tony,ai,0.5800000000000001,5699,suggest,12,suggest,C,NA,default,25,Yes,NA,Female,English,NA,8
2243,default,block1,kids,ai,0.010000000000000009,5158,MC,13,MC,MC,NA,default,25,Yes,NA,Female,English,NA,9
2243,default,block1,olivia,ai,0.88,5891,pretend,14,pretend,C,NA,default,25,Yes,NA,Female,English,NA,10
2243,default,block1,mary,ai,0.73,4236,say,15,say,C,NA,default,25,Yes,NA,Female,English,NA,11
2243,default,block1,charley,ai,0.54,6264,announce,16,announce,C,NA,default,25,Yes,NA,Female,English,NA,12
2243,default,block1,zoe,ai,0.5800000000000001,6433,confess,17,confess,C,NA,default,25,Yes,NA,Female,English,NA,13
2243,default,block1,julian,ai,0.55,3493,reveal,18,reveal,C,NA,default,25,Yes,NA,Female,English,NA,14
2243,default,block1,ballet,ai,0.040000000000000036,3782,MC,19,MC,MC,NA,default,25,Yes,NA,Female,English,NA,15
2243,default,block1,emily,ai,0.54,5581,acknowledge,20,acknowledge,C,NA,default,25,Yes,NA,Female,English,NA,16
2243,default,block1,josie,ai,0.65,5302,think,21,think,C,NA,default,25,Yes,NA,Female,English,NA,17
2243,default,block1,pizza,ai,0.030000000000000027,4322,MC,22,MC,MC,NA,default,25,Yes,NA,Female,English,NA,18
2243,default,block1,owen,ai,0.48,7161,know,23,know,C,NA,default,25,Yes,NA,Female,English,NA,19
2243,default,block1,jon,ai,0.55,6825,hear,24,hear,C,NA,default,25,Yes,NA,Female,English,NA,20
2243,default,block1,isabella,ai,0.6599999999999999,4556,discover,25,discover,C,NA,default,25,Yes,NA,Female,English,NA,21
2243,default,block1,danny,ai,0.61,10971,inform,26,inform,C,NA,default,25,Yes,NA,Female,English,NA,22
2243,default,block1,sophia,ai,0.62,3726,be_annoyed,27,be_annoyed,C,NA,default,25,Yes,NA,Female,English,NA,23
2243,default,block1,emma,ai,0.62,3060,prove,28,prove,C,NA,default,25,Yes,NA,Female,English,NA,24
2243,default,block1,mia,ai,0.54,7204,admit,29,admit,C,NA,default,25,Yes,NA,Female,English,NA,25
2243,default,block1,jackson,ai,0.08999999999999997,5976,be_right,30,be_right,C,NA,default,25,Yes,NA,Female,English,NA,26
2243,default,block2,emily,projective,0.96,5143,acknowledge,32,acknowledge,C,NA,default,25,Yes,NA,Female,English,NA,27
2243,default,block2,danny,projective,0.69,9443,inform,33,inform,C,NA,default,25,Yes,NA,Female,English,NA,28
2243,default,block2,josie,projective,0.11,4746,think,34,think,C,NA,default,25,Yes,NA,Female,English,NA,29
2243,default,block2,tony,projective,0.12,4447,suggest,35,suggest,C,NA,default,25,Yes,NA,Female,English,NA,30
2243,default,block2,jackson,projective,0.49,5261,be_right,36,be_right,C,NA,default,25,Yes,NA,Female,English,NA,31
2243,default,block2,olivia,projective,0.16,4858,pretend,37,pretend,C,NA,default,25,Yes,NA,Female,English,NA,32
2243,default,block2,kids,projective,0.98,4787,MC,38,MC,MC,NA,default,25,Yes,NA,Female,English,NA,33
2243,default,block2,ballet,projective,0.96,3017,MC,39,MC,MC,NA,default,25,Yes,NA,Female,English,NA,34
2243,default,block2,jayden,projective,0.28,6039,demonstrate,40,demonstrate,C,NA,default,25,Yes,NA,Female,English,NA,35
2243,default,block2,garage,projective,0.97,2159,MC,41,MC,MC,NA,default,25,Yes,NA,Female,English,NA,36
2243,default,block2,muffins,projective,0.97,2455,MC,42,MC,MC,NA,default,25,Yes,NA,Female,English,NA,37
2243,default,block2,owen,projective,0.84,2748,know,43,know,C,NA,default,25,Yes,NA,Female,English,NA,38
2243,default,block2,zoe,projective,0.68,5805,confess,44,confess,C,NA,default,25,Yes,NA,Female,English,NA,39
2243,default,block2,julian,projective,0.76,2714,reveal,45,reveal,C,NA,default,25,Yes,NA,Female,English,NA,40
2243,default,block2,hat,projective,0.97,2250,MC,46,MC,MC,NA,default,25,Yes,NA,Female,English,NA,41
2243,default,block2,mary,projective,0.25,3536,say,47,say,C,NA,default,25,Yes,NA,Female,English,NA,42
2243,default,block2,grace,projective,0.48,5848,confirm,48,confirm,C,NA,default,25,Yes,NA,Female,English,NA,43
2243,default,block2,mia,projective,0.45,6260,admit,49,admit,C,NA,default,25,Yes,NA,Female,English,NA,44
2243,default,block2,josh,projective,0.51,5949,see,50,see,C,NA,default,25,Yes,NA,Female,English,NA,45
2243,default,block2,charley,projective,0.31,2870,announce,51,announce,C,NA,default,25,Yes,NA,Female,English,NA,46
2243,default,block2,pizza,projective,0.95,2288,MC,52,MC,MC,NA,default,25,Yes,NA,Female,English,NA,47
2243,default,block2,sophia,projective,0.48,3976,be_annoyed,53,be_annoyed,C,NA,default,25,Yes,NA,Female,English,NA,48
2243,default,block2,emma,projective,0.54,14385,prove,54,prove,C,NA,default,25,Yes,NA,Female,English,NA,49
2243,default,block2,isabella,projective,0.45,4136,discover,55,discover,C,NA,default,25,Yes,NA,Female,English,NA,50
2243,default,block2,jon,projective,0.4,2404,hear,56,hear,C,NA,default,25,Yes,NA,Female,English,NA,51
2243,default,block2,frank,projective,0.39,2910,establish,57,establish,C,NA,default,25,Yes,NA,Female,English,NA,52
2047,default,block1,josie,ai,0.72,11250,inform,5,inform,C,NA,default,21,Yes,NA,Male,English,NA,1
2047,default,block1,frank,ai,0.65,9403,prove,6,prove,C,NA,default,21,Yes,NA,Male,English,NA,2
2047,default,block1,jackson,ai,0.76,7465,know,7,know,C,NA,default,21,Yes,NA,Male,English,NA,3
2047,default,block1,mary,ai,0.6699999999999999,21655,hear,8,hear,C,NA,default,21,Yes,NA,Male,English,NA,4
2047,default,block1,josh,ai,0.6599999999999999,16428,be_annoyed,9,be_annoyed,C,NA,default,21,Yes,NA,Male,English,NA,5
2047,default,block1,sophia,ai,0.6799999999999999,11094,think,10,think,C,NA,default,21,Yes,NA,Male,English,NA,6
2047,default,block1,jon,ai,0.65,5344,discover,11,discover,C,NA,default,21,Yes,NA,Male,English,NA,7
2047,default,block1,ballet,ai,0.5,7061,MC,12,MC,MC,NA,default,21,Yes,NA,Male,English,NA,8
2047,default,block1,muffins,ai,0.77,3395,MC,13,MC,MC,NA,default,21,Yes,NA,Male,English,NA,9
2047,default,block1,emily,ai,0.76,5368,suggest,14,suggest,C,NA,default,21,Yes,NA,Male,English,NA,10
2047,default,block1,emma,ai,0.69,3107,announce,15,announce,C,NA,default,21,Yes,NA,Male,English,NA,11
2047,default,block1,owen,ai,0.74,3710,be_right,16,be_right,C,NA,default,21,Yes,NA,Male,English,NA,12
2047,default,block1,kids,ai,0.61,6234,MC,17,MC,MC,NA,default,21,Yes,NA,Male,English,NA,13
2047,default,block1,isabella,ai,0.69,20696,say,18,say,C,NA,default,21,Yes,NA,Male,English,NA,14
2047,default,block1,olivia,ai,0.74,21050,establish,19,establish,C,NA,default,21,Yes,NA,Male,English,NA,15
2047,default,block1,mia,ai,0.8,7026,confirm,20,confirm,C,NA,default,21,Yes,NA,Male,English,NA,16
2047,default,block1,hat,ai,0.6,11027,MC,21,MC,MC,NA,default,21,Yes,NA,Male,English,NA,17
2047,default,block1,charley,ai,0.6,5440,admit,22,admit,C,NA,default,21,Yes,NA,Male,English,NA,18
2047,default,block1,grace,ai,0.6799999999999999,3432,acknowledge,23,acknowledge,C,NA,default,21,Yes,NA,Male,English,NA,19
2047,default,block1,julian,ai,0.55,3800,reveal,24,reveal,C,NA,default,21,Yes,NA,Male,English,NA,20
2047,default,block1,pizza,ai,0.48,4044,MC,25,MC,MC,NA,default,21,Yes,NA,Male,English,NA,21
2047,default,block1,danny,ai,0.61,10540,confess,26,confess,C,NA,default,21,Yes,NA,Male,English,NA,22
2047,default,block1,zoe,ai,0.5800000000000001,8654,demonstrate,27,demonstrate,C,NA,default,21,Yes,NA,Male,English,NA,23
2047,default,block1,tony,ai,0.56,6580,see,28,see,C,NA,default,21,Yes,NA,Male,English,NA,24
2047,default,block1,garage,ai,0.54,4903,MC,29,MC,MC,NA,default,21,Yes,NA,Male,English,NA,25
2047,default,block1,jayden,ai,0.5800000000000001,19757,pretend,30,pretend,C,NA,default,21,Yes,NA,Male,English,NA,26
2047,default,block2,kids,projective,1,10090,MC,32,MC,MC,NA,default,21,Yes,NA,Male,English,NA,27
2047,default,block2,mary,projective,0.51,4423,hear,33,hear,C,NA,default,21,Yes,NA,Male,English,NA,28
2047,default,block2,charley,projective,0.54,2286,admit,34,admit,C,NA,default,21,Yes,NA,Male,English,NA,29
2047,default,block2,julian,projective,0.58,13282,reveal,35,reveal,C,NA,default,21,Yes,NA,Male,English,NA,30
2047,default,block2,owen,projective,0.57,2436,be_right,36,be_right,C,NA,default,21,Yes,NA,Male,English,NA,31
2047,default,block2,josh,projective,0.54,7606,be_annoyed,37,be_annoyed,C,NA,default,21,Yes,NA,Male,English,NA,32
2047,default,block2,olivia,projective,0.42,3917,establish,38,establish,C,NA,default,21,Yes,NA,Male,English,NA,33
2047,default,block2,grace,projective,0.39,6217,acknowledge,39,acknowledge,C,NA,default,21,Yes,NA,Male,English,NA,34
2047,default,block2,sophia,projective,0.57,7196,think,40,think,C,NA,default,21,Yes,NA,Male,English,NA,35
2047,default,block2,jon,projective,0.73,15631,discover,41,discover,C,NA,default,21,Yes,NA,Male,English,NA,36
2047,default,block2,mia,projective,0.45,5623,confirm,42,confirm,C,NA,default,21,Yes,NA,Male,English,NA,37
2047,default,block2,isabella,projective,0.42,10016,say,43,say,C,NA,default,21,Yes,NA,Male,English,NA,38
2047,default,block2,ballet,projective,1,3304,MC,44,MC,MC,NA,default,21,Yes,NA,Male,English,NA,39
2047,default,block2,danny,projective,0.47,4348,confess,45,confess,C,NA,default,21,Yes,NA,Male,English,NA,40
2047,default,block2,emily,projective,0.37,17007,suggest,46,suggest,C,NA,default,21,Yes,NA,Male,English,NA,41
2047,default,block2,zoe,projective,0.44,12114,demonstrate,47,demonstrate,C,NA,default,21,Yes,NA,Male,English,NA,42
2047,default,block2,hat,projective,1,13196,MC,48,MC,MC,NA,default,21,Yes,NA,Male,English,NA,43
2047,default,block2,tony,projective,0.49,2232,see,49,see,C,NA,default,21,Yes,NA,Male,English,NA,44
2047,default,block2,josie,projective,0.46,2360,inform,50,inform,C,NA,default,21,Yes,NA,Male,English,NA,45
2047,default,block2,pizza,projective,1,3088,MC,51,MC,MC,NA,default,21,Yes,NA,Male,English,NA,46
2047,default,block2,emma,projective,0.56,3252,announce,52,announce,C,NA,default,21,Yes,NA,Male,English,NA,47
2047,default,block2,garage,projective,1,12507,MC,53,MC,MC,NA,default,21,Yes,NA,Male,English,NA,48
2047,default,block2,muffins,projective,1,4545,MC,54,MC,MC,NA,default,21,Yes,NA,Male,English,NA,49
2047,default,block2,jayden,projective,0.5,7039,pretend,55,pretend,C,NA,default,21,Yes,NA,Male,English,NA,50
2047,default,block2,frank,projective,0.44,2963,prove,56,prove,C,NA,default,21,Yes,NA,Male,English,NA,51
2047,default,block2,jackson,projective,0.9,6529,know,57,know,C,NA,default,21,Yes,NA,Male,English,NA,52
2082,default,block1,tony,projective,0.87,11074,be_annoyed,5,be_annoyed,C,NA,default,24,Yes,I wasn't sure exactly what it meant when it asked if a sentence sounded good? I based it on if the sentence answered the question.,Female,English,NA,1
2082,default,block1,pizza,projective,0.97,8279,MC,6,MC,MC,NA,default,24,Yes,I wasn't sure exactly what it meant when it asked if a sentence sounded good? I based it on if the sentence answered the question.,Female,English,NA,2
2082,default,block1,emily,projective,0.5,14255,establish,7,establish,C,NA,default,24,Yes,I wasn't sure exactly what it meant when it asked if a sentence sounded good? I based it on if the sentence answered the question.,Female,English,NA,3
2082,default,block1,ballet,projective,0.96,5742,MC,8,MC,MC,NA,default,24,Yes,I wasn't sure exactly what it meant when it asked if a sentence sounded good? I based it on if the sentence answered the question.,Female,English,NA,4
2082,default,block1,emma,projective,0.89,7506,know,9,know,C,NA,default,24,Yes,I wasn't sure exactly what it meant when it asked if a sentence sounded good? I based it on if the sentence answered the question.,Female,English,NA,5
2082,default,block1,garage,projective,0.94,7793,MC,10,MC,MC,NA,default,24,Yes,I wasn't sure exactly what it meant when it asked if a sentence sounded good? I based it on if the sentence answered the question.,Female,English,NA,6
2082,default,block1,jackson,projective,0.14,8632,pretend,11,pretend,C,NA,default,24,Yes,I wasn't sure exactly what it meant when it asked if a sentence sounded good? I based it on if the sentence answered the question.,Female,English,NA,7
2082,default,block1,isabella,projective,0.12,8008,prove,12,prove,C,NA,default,24,Yes,I wasn't sure exactly what it meant when it asked if a sentence sounded good? I based it on if the sentence answered the question.,Female,English,NA,8
2082,default,block1,jon,projective,0.11,6308,think,13,think,C,NA,default,24,Yes,I wasn't sure exactly what it meant when it asked if a sentence sounded good? I based it on if the sentence answered the question.,Female,English,NA,9
2082,default,block1,olivia,projective,0.37,9684,acknowledge,14,acknowledge,C,NA,default,24,Yes,I wasn't sure exactly what it meant when it asked if a sentence sounded good? I based it on if the sentence answered the question.,Female,English,NA,10
2082,default,block1,owen,projective,0.62,8395,see,15,see,C,NA,default,24,Yes,I wasn't sure exactly what it meant when it asked if a sentence sounded good? I based it on if the sentence answered the question.,Female,English,NA,11
2082,default,block1,hat,projective,0.81,6035,MC,16,MC,MC,NA,default,24,Yes,I wasn't sure exactly what it meant when it asked if a sentence sounded good? I based it on if the sentence answered the question.,Female,English,NA,12
2082,default,block1,grace,projective,0.09,5126,be_right,17,be_right,C,NA,default,24,Yes,I wasn't sure exactly what it meant when it asked if a sentence sounded good? I based it on if the sentence answered the question.,Female,English,NA,13
2082,default,block1,mia,projective,0.76,15292,inform,18,inform,C,NA,default,24,Yes,I wasn't sure exactly what it meant when it asked if a sentence sounded good? I based it on if the sentence answered the question.,Female,English,NA,14
2082,default,block1,josh,projective,0.65,8266,hear,19,hear,C,NA,default,24,Yes,I wasn't sure exactly what it meant when it asked if a sentence sounded good? I based it on if the sentence answered the question.,Female,English,NA,15
2082,default,block1,julian,projective,0.85,5571,confess,20,confess,C,NA,default,24,Yes,I wasn't sure exactly what it meant when it asked if a sentence sounded good? I based it on if the sentence answered the question.,Female,English,NA,16
2082,default,block1,mary,projective,0.38,18060,say,21,say,C,NA,default,24,Yes,I wasn't sure exactly what it meant when it asked if a sentence sounded good? I based it on if the sentence answered the question.,Female,English,NA,17
2082,default,block1,muffins,projective,0.98,4992,MC,22,MC,MC,NA,default,24,Yes,I wasn't sure exactly what it meant when it asked if a sentence sounded good? I based it on if the sentence answered the question.,Female,English,NA,18
2082,default,block1,jayden,projective,0.26,6523,confirm,23,confirm,C,NA,default,24,Yes,I wasn't sure exactly what it meant when it asked if a sentence sounded good? I based it on if the sentence answered the question.,Female,English,NA,19
2082,default,block1,josie,projective,0.4,7555,reveal,24,reveal,C,NA,default,24,Yes,I wasn't sure exactly what it meant when it asked if a sentence sounded good? I based it on if the sentence answered the question.,Female,English,NA,20
2082,default,block1,zoe,projective,0.22,8830,demonstrate,25,demonstrate,C,NA,default,24,Yes,I wasn't sure exactly what it meant when it asked if a sentence sounded good? I based it on if the sentence answered the question.,Female,English,NA,21
2082,default,block1,frank,projective,0.56,6363,admit,26,admit,C,NA,default,24,Yes,I wasn't sure exactly what it meant when it asked if a sentence sounded good? I based it on if the sentence answered the question.,Female,English,NA,22
2082,default,block1,sophia,projective,0.74,8568,announce,27,announce,C,NA,default,24,Yes,I wasn't sure exactly what it meant when it asked if a sentence sounded good? I based it on if the sentence answered the question.,Female,English,NA,23
2082,default,block1,charley,projective,0.22,6443,suggest,28,suggest,C,NA,default,24,Yes,I wasn't sure exactly what it meant when it asked if a sentence sounded good? I based it on if the sentence answered the question.,Female,English,NA,24
2082,default,block1,kids,projective,0.97,5909,MC,29,MC,MC,NA,default,24,Yes,I wasn't sure exactly what it meant when it asked if a sentence sounded good? I based it on if the sentence answered the question.,Female,English,NA,25
2082,default,block1,danny,projective,0.79,6474,discover,30,discover,C,NA,default,24,Yes,I wasn't sure exactly what it meant when it asked if a sentence sounded good? I based it on if the sentence answered the question.,Female,English,NA,26
2082,default,block2,sophia,ai,0.39,16408,announce,32,announce,C,NA,default,24,Yes,I wasn't sure exactly what it meant when it asked if a sentence sounded good? I based it on if the sentence answered the question.,Female,English,NA,27
2082,default,block2,danny,ai,0.29000000000000004,6497,discover,33,discover,C,NA,default,24,Yes,I wasn't sure exactly what it meant when it asked if a sentence sounded good? I based it on if the sentence answered the question.,Female,English,NA,28
2082,default,block2,frank,ai,0.75,15340,admit,34,admit,C,NA,default,24,Yes,I wasn't sure exactly what it meant when it asked if a sentence sounded good? I based it on if the sentence answered the question.,Female,English,NA,29
2082,default,block2,mary,ai,0.76,9084,say,35,say,C,NA,default,24,Yes,I wasn't sure exactly what it meant when it asked if a sentence sounded good? I based it on if the sentence answered the question.,Female,English,NA,30
2082,default,block2,garage,ai,0.31999999999999995,8288,MC,36,MC,MC,NA,default,24,Yes,I wasn't sure exactly what it meant when it asked if a sentence sounded good? I based it on if the sentence answered the question.,Female,English,NA,31
2082,default,block2,pizza,ai,0.20999999999999996,6043,MC,37,MC,MC,NA,default,24,Yes,I wasn't sure exactly what it meant when it asked if a sentence sounded good? I based it on if the sentence answered the question.,Female,English,NA,32
2082,default,block2,grace,ai,0.13,8146,be_right,38,be_right,C,NA,default,24,Yes,I wasn't sure exactly what it meant when it asked if a sentence sounded good? I based it on if the sentence answered the question.,Female,English,NA,33
2082,default,block2,kids,ai,0.31000000000000005,12946,MC,39,MC,MC,NA,default,24,Yes,I wasn't sure exactly what it meant when it asked if a sentence sounded good? I based it on if the sentence answered the question.,Female,English,NA,34
2082,default,block2,julian,ai,0.71,5569,confess,40,confess,C,NA,default,24,Yes,I wasn't sure exactly what it meant when it asked if a sentence sounded good? I based it on if the sentence answered the question.,Female,English,NA,35
2082,default,block2,tony,ai,0.8200000000000001,5793,be_annoyed,41,be_annoyed,C,NA,default,24,Yes,I wasn't sure exactly what it meant when it asked if a sentence sounded good? I based it on if the sentence answered the question.,Female,English,NA,36
2082,default,block2,emily,ai,0.49,6054,establish,42,establish,C,NA,default,24,Yes,I wasn't sure exactly what it meant when it asked if a sentence sounded good? I based it on if the sentence answered the question.,Female,English,NA,37
2082,default,block2,jon,ai,0.71,9207,think,43,think,C,NA,default,24,Yes,I wasn't sure exactly what it meant when it asked if a sentence sounded good? I based it on if the sentence answered the question.,Female,English,NA,38
2082,default,block2,olivia,ai,0.39,5971,acknowledge,44,acknowledge,C,NA,default,24,Yes,I wasn't sure exactly what it meant when it asked if a sentence sounded good? I based it on if the sentence answered the question.,Female,English,NA,39
2082,default,block2,josh,ai,0.73,5503,hear,45,hear,C,NA,default,24,Yes,I wasn't sure exactly what it meant when it asked if a sentence sounded good? I based it on if the sentence answered the question.,Female,English,NA,40
2082,default,block2,jayden,ai,0.51,10701,confirm,46,confirm,C,NA,default,24,Yes,I wasn't sure exactly what it meant when it asked if a sentence sounded good? I based it on if the sentence answered the question.,Female,English,NA,41
2082,default,block2,isabella,ai,0.69,5422,prove,47,prove,C,NA,default,24,Yes,I wasn't sure exactly what it meant when it asked if a sentence sounded good? I based it on if the sentence answered the question.,Female,English,NA,42
2082,default,block2,josie,ai,0.75,6448,reveal,48,reveal,C,NA,default,24,Yes,I wasn't sure exactly what it meant when it asked if a sentence sounded good? I based it on if the sentence answered the question.,Female,English,NA,43
2082,default,block2,owen,ai,0.8,8387,see,49,see,C,NA,default,24,Yes,I wasn't sure exactly what it meant when it asked if a sentence sounded good? I based it on if the sentence answered the question.,Female,English,NA,44
2082,default,block2,jackson,ai,0.25,15856,pretend,50,pretend,C,NA,default,24,Yes,I wasn't sure exactly what it meant when it asked if a sentence sounded good? I based it on if the sentence answered the question.,Female,English,NA,45
2082,default,block2,mia,ai,0.74,14792,inform,51,inform,C,NA,default,24,Yes,I wasn't sure exactly what it meant when it asked if a sentence sounded good? I based it on if the sentence answered the question.,Female,English,NA,46
2082,default,block2,muffins,ai,0.44999999999999996,8323,MC,52,MC,MC,NA,default,24,Yes,I wasn't sure exactly what it meant when it asked if a sentence sounded good? I based it on if the sentence answered the question.,Female,English,NA,47
2082,default,block2,zoe,ai,0.76,5992,demonstrate,53,demonstrate,C,NA,default,24,Yes,I wasn't sure exactly what it meant when it asked if a sentence sounded good? I based it on if the sentence answered the question.,Female,English,NA,48
2082,default,block2,ballet,ai,0.10999999999999999,6133,MC,54,MC,MC,NA,default,24,Yes,I wasn't sure exactly what it meant when it asked if a sentence sounded good? I based it on if the sentence answered the question.,Female,English,NA,49
2082,default,block2,hat,ai,0.44999999999999996,5427,MC,55,MC,MC,NA,default,24,Yes,I wasn't sure exactly what it meant when it asked if a sentence sounded good? I based it on if the sentence answered the question.,Female,English,NA,50
2082,default,block2,emma,ai,0.81,4881,know,56,know,C,NA,default,24,Yes,I wasn't sure exactly what it meant when it asked if a sentence sounded good? I based it on if the sentence answered the question.,Female,English,NA,51
2082,default,block2,charley,ai,0.75,9719,suggest,57,suggest,C,NA,default,24,Yes,I wasn't sure exactly what it meant when it asked if a sentence sounded good? I based it on if the sentence answered the question.,Female,English,NA,52
2187,default,block1,josie,projective,0.05,31335,reveal,5,reveal,C,NA,default,24,Yes,NA,Female,English,NA,1
2187,default,block1,muffins,projective,0.99,12644,MC,6,MC,MC,NA,default,24,Yes,NA,Female,English,NA,2
2187,default,block1,ballet,projective,0.97,6541,MC,7,MC,MC,NA,default,24,Yes,NA,Female,English,NA,3
2187,default,block1,josh,projective,0.07,9280,see,8,see,C,NA,default,24,Yes,NA,Female,English,NA,4
2187,default,block1,hat,projective,1,7228,MC,9,MC,MC,NA,default,24,Yes,NA,Female,English,NA,5
2187,default,block1,grace,projective,0.91,8045,discover,10,discover,C,NA,default,24,Yes,NA,Female,English,NA,6
2187,default,block1,tony,projective,0.08,9664,pretend,11,pretend,C,NA,default,24,Yes,NA,Female,English,NA,7
2187,default,block1,frank,projective,0.95,11234,inform,12,inform,C,NA,default,24,Yes,NA,Female,English,NA,8
2187,default,block1,jon,projective,1,7072,confess,13,confess,C,NA,default,24,Yes,NA,Female,English,NA,9
2187,default,block1,isabella,projective,0.96,7848,know,14,know,C,NA,default,24,Yes,NA,Female,English,NA,10
2187,default,block1,mary,projective,0.93,7891,be_annoyed,15,be_annoyed,C,NA,default,24,Yes,NA,Female,English,NA,11
2187,default,block1,charley,projective,0.24,8753,be_right,16,be_right,C,NA,default,24,Yes,NA,Female,English,NA,12
2187,default,block1,jayden,projective,1,11830,establish,17,establish,C,NA,default,24,Yes,NA,Female,English,NA,13
2187,default,block1,sophia,projective,0.93,21654,hear,18,hear,C,NA,default,24,Yes,NA,Female,English,NA,14
2187,default,block1,mia,projective,0.11,6207,suggest,19,suggest,C,NA,default,24,Yes,NA,Female,English,NA,15
2187,default,block1,olivia,projective,0.17,6875,demonstrate,20,demonstrate,C,NA,default,24,Yes,NA,Female,English,NA,16
2187,default,block1,zoe,projective,0.12,6774,say,21,say,C,NA,default,24,Yes,NA,Female,English,NA,17
2187,default,block1,julian,projective,0.75,6082,confirm,22,confirm,C,NA,default,24,Yes,NA,Female,English,NA,18
2187,default,block1,garage,projective,0.93,5267,MC,23,MC,MC,NA,default,24,Yes,NA,Female,English,NA,19
2187,default,block1,emily,projective,0.06,9150,think,24,think,C,NA,default,24,Yes,NA,Female,English,NA,20
2187,default,block1,emma,projective,0.85,6828,acknowledge,25,acknowledge,C,NA,default,24,Yes,NA,Female,English,NA,21
2187,default,block1,danny,projective,0.93,6401,announce,26,announce,C,NA,default,24,Yes,NA,Female,English,NA,22
2187,default,block1,kids,projective,0.94,5782,MC,27,MC,MC,NA,default,24,Yes,NA,Female,English,NA,23
2187,default,block1,owen,projective,0.81,8850,admit,28,admit,C,NA,default,24,Yes,NA,Female,English,NA,24
2187,default,block1,pizza,projective,0.94,5718,MC,29,MC,MC,NA,default,24,Yes,NA,Female,English,NA,25
2187,default,block1,jackson,projective,0.69,10681,prove,30,prove,C,NA,default,24,Yes,NA,Female,English,NA,26
2187,default,block2,julian,ai,0.10999999999999999,7481,confirm,32,confirm,C,NA,default,24,Yes,NA,Female,English,NA,27
2187,default,block2,emily,ai,0.13,6685,think,33,think,C,NA,default,24,Yes,NA,Female,English,NA,28
2187,default,block2,mia,ai,0.12,7463,suggest,34,suggest,C,NA,default,24,Yes,NA,Female,English,NA,29
2187,default,block2,ballet,ai,0.020000000000000018,4256,MC,35,MC,MC,NA,default,24,Yes,NA,Female,English,NA,30
2187,default,block2,grace,ai,0.16000000000000003,5375,discover,36,discover,C,NA,default,24,Yes,NA,Female,English,NA,31
2187,default,block2,tony,ai,0.38,7350,pretend,37,pretend,C,NA,default,24,Yes,NA,Female,English,NA,32
2187,default,block2,josh,ai,0.010000000000000009,23421,see,38,see,C,NA,default,24,Yes,NA,Female,English,NA,33
2187,default,block2,sophia,ai,0.18999999999999995,5266,hear,39,hear,C,NA,default,24,Yes,NA,Female,English,NA,34
2187,default,block2,mary,ai,0.64,8883,be_annoyed,40,be_annoyed,C,NA,default,24,Yes,NA,Female,English,NA,35
2187,default,block2,pizza,ai,0.050000000000000044,7445,MC,41,MC,MC,NA,default,24,Yes,NA,Female,English,NA,36
2187,default,block2,kids,ai,0.17000000000000004,8613,MC,42,MC,MC,NA,default,24,Yes,NA,Female,English,NA,37
2187,default,block2,frank,ai,0.43999999999999995,11449,inform,43,inform,C,NA,default,24,Yes,NA,Female,English,NA,38
2187,default,block2,jon,ai,0.39,19157,confess,44,confess,C,NA,default,24,Yes,NA,Female,English,NA,39
2187,default,block2,jayden,ai,0.29000000000000004,7664,establish,45,establish,C,NA,default,24,Yes,NA,Female,English,NA,40
2187,default,block2,emma,ai,0.30000000000000004,5823,acknowledge,46,acknowledge,C,NA,default,24,Yes,NA,Female,English,NA,41
2187,default,block2,owen,ai,0.18999999999999995,4983,admit,47,admit,C,NA,default,24,Yes,NA,Female,English,NA,42
2187,default,block2,hat,ai,0.010000000000000009,10593,MC,48,MC,MC,NA,default,24,Yes,NA,Female,English,NA,43
2187,default,block2,olivia,ai,0.49,6650,demonstrate,49,demonstrate,C,NA,default,24,Yes,NA,Female,English,NA,44
2187,default,block2,isabella,ai,0.55,8040,know,50,know,C,NA,default,24,Yes,NA,Female,English,NA,45
2187,default,block2,muffins,ai,0.040000000000000036,4821,MC,51,MC,MC,NA,default,24,Yes,NA,Female,English,NA,46
2187,default,block2,danny,ai,0.53,8494,announce,52,announce,C,NA,default,24,Yes,NA,Female,English,NA,47
2187,default,block2,jackson,ai,0.26,9210,prove,53,prove,C,NA,default,24,Yes,NA,Female,English,NA,48
2187,default,block2,charley,ai,0.20999999999999996,5417,be_right,54,be_right,C,NA,default,24,Yes,NA,Female,English,NA,49
2187,default,block2,garage,ai,0.08999999999999997,4733,MC,55,MC,MC,NA,default,24,Yes,NA,Female,English,NA,50
2187,default,block2,zoe,ai,0.43000000000000005,7450,say,56,say,C,NA,default,24,Yes,NA,Female,English,NA,51
2187,default,block2,josie,ai,0.43999999999999995,7431,reveal,57,reveal,C,NA,default,24,Yes,NA,Female,English,NA,52
2254,default,block1,emily,ai,0.030000000000000027,32028,prove,5,prove,C,NA,default,26,Yes,Study was fun all the way.,Male,English,NA,1
2254,default,block1,jayden,ai,0.010000000000000009,49618,establish,6,establish,C,NA,default,26,Yes,Study was fun all the way.,Male,English,NA,2
2254,default,block1,ballet,ai,0.030000000000000027,26508,MC,7,MC,MC,NA,default,26,Yes,Study was fun all the way.,Male,English,NA,3
2254,default,block1,danny,ai,0.26,28739,know,8,know,C,NA,default,26,Yes,Study was fun all the way.,Male,English,NA,4
2254,default,block1,owen,ai,0.050000000000000044,49259,confirm,9,confirm,C,NA,default,26,Yes,Study was fun all the way.,Male,English,NA,5
2254,default,block1,emma,ai,0.010000000000000009,15074,hear,10,hear,C,NA,default,26,Yes,Study was fun all the way.,Male,English,NA,6
2254,default,block1,kids,ai,0.020000000000000018,11947,MC,11,MC,MC,NA,default,26,Yes,Study was fun all the way.,Male,English,NA,7
2254,default,block1,josie,ai,0.030000000000000027,8720,announce,12,announce,C,NA,default,26,Yes,Study was fun all the way.,Male,English,NA,8
2254,default,block1,jon,ai,0.020000000000000018,15234,say,13,say,C,NA,default,26,Yes,Study was fun all the way.,Male,English,NA,9
2254,default,block1,mary,ai,0.06999999999999995,82732,discover,14,discover,C,NA,default,26,Yes,Study was fun all the way.,Male,English,NA,10
2254,default,block1,tony,ai,0.040000000000000036,6892,confess,15,confess,C,NA,default,26,Yes,Study was fun all the way.,Male,English,NA,11
2254,default,block1,zoe,ai,0.040000000000000036,12327,reveal,16,reveal,C,NA,default,26,Yes,Study was fun all the way.,Male,English,NA,12
2254,default,block1,muffins,ai,0.010000000000000009,44230,MC,17,MC,MC,NA,default,26,Yes,Study was fun all the way.,Male,English,NA,13
2254,default,block1,josh,ai,0.030000000000000027,3619,think,18,think,C,NA,default,26,Yes,Study was fun all the way.,Male,English,NA,14
2254,default,block1,isabella,ai,0.020000000000000018,4686,be_annoyed,19,be_annoyed,C,NA,default,26,Yes,Study was fun all the way.,Male,English,NA,15
2254,default,block1,mia,ai,0,5778,acknowledge,20,acknowledge,C,NA,default,26,Yes,Study was fun all the way.,Male,English,NA,16
2254,default,block1,garage,ai,0.020000000000000018,87597,MC,21,MC,MC,NA,default,26,Yes,Study was fun all the way.,Male,English,NA,17
2254,default,block1,julian,ai,0.010000000000000009,43930,suggest,22,suggest,C,NA,default,26,Yes,Study was fun all the way.,Male,English,NA,18
2254,default,block1,sophia,ai,0.48,49277,inform,23,inform,C,NA,default,26,Yes,Study was fun all the way.,Male,English,NA,19
2254,default,block1,frank,ai,0.020000000000000018,8085,pretend,24,pretend,C,NA,default,26,Yes,Study was fun all the way.,Male,English,NA,20
2254,default,block1,olivia,ai,0.020000000000000018,4526,be_right,25,be_right,C,NA,default,26,Yes,Study was fun all the way.,Male,English,NA,21
2254,default,block1,jackson,ai,0.51,5618,see,26,see,C,NA,default,26,Yes,Study was fun all the way.,Male,English,NA,22
2254,default,block1,hat,ai,0.020000000000000018,165485,MC,27,MC,MC,NA,default,26,Yes,Study was fun all the way.,Male,English,NA,23
2254,default,block1,grace,ai,0.010000000000000009,12169,admit,28,admit,C,NA,default,26,Yes,Study was fun all the way.,Male,English,NA,24
2254,default,block1,charley,ai,0.020000000000000018,3459,demonstrate,29,demonstrate,C,NA,default,26,Yes,Study was fun all the way.,Male,English,NA,25
2254,default,block1,pizza,ai,0.5,3436,MC,30,MC,MC,NA,default,26,Yes,Study was fun all the way.,Male,English,NA,26
2254,default,block2,zoe,projective,0.99,8734,reveal,32,reveal,C,NA,default,26,Yes,Study was fun all the way.,Male,English,NA,27
2254,default,block2,jon,projective,0.48,27209,say,33,say,C,NA,default,26,Yes,Study was fun all the way.,Male,English,NA,28
2254,default,block2,mia,projective,0.75,9017,acknowledge,34,acknowledge,C,NA,default,26,Yes,Study was fun all the way.,Male,English,NA,29
2254,default,block2,jayden,projective,0.99,5299,establish,35,establish,C,NA,default,26,Yes,Study was fun all the way.,Male,English,NA,30
2254,default,block2,isabella,projective,0.48,11213,be_annoyed,36,be_annoyed,C,NA,default,26,Yes,Study was fun all the way.,Male,English,NA,31
2254,default,block2,ballet,projective,0.77,4908,MC,37,MC,MC,NA,default,26,Yes,Study was fun all the way.,Male,English,NA,32
2254,default,block2,jackson,projective,0.66,8330,see,38,see,C,NA,default,26,Yes,Study was fun all the way.,Male,English,NA,33
2254,default,block2,garage,projective,0.98,10195,MC,39,MC,MC,NA,default,26,Yes,Study was fun all the way.,Male,English,NA,34
2254,default,block2,frank,projective,0.99,5372,pretend,40,pretend,C,NA,default,26,Yes,Study was fun all the way.,Male,English,NA,35
2254,default,block2,mary,projective,0.99,5533,discover,41,discover,C,NA,default,26,Yes,Study was fun all the way.,Male,English,NA,36
2254,default,block2,owen,projective,0.71,11923,confirm,42,confirm,C,NA,default,26,Yes,Study was fun all the way.,Male,English,NA,37
2254,default,block2,muffins,projective,0.98,8010,MC,43,MC,MC,NA,default,26,Yes,Study was fun all the way.,Male,English,NA,38
2254,default,block2,emily,projective,0.98,7300,prove,44,prove,C,NA,default,26,Yes,Study was fun all the way.,Male,English,NA,39
2254,default,block2,kids,projective,0.97,15198,MC,45,MC,MC,NA,default,26,Yes,Study was fun all the way.,Male,English,NA,40
2254,default,block2,josh,projective,0.72,2822,think,46,think,C,NA,default,26,Yes,Study was fun all the way.,Male,English,NA,41
2254,default,block2,olivia,projective,0.79,33896,be_right,47,be_right,C,NA,default,26,Yes,Study was fun all the way.,Male,English,NA,42
2254,default,block2,grace,projective,0.79,7519,admit,48,admit,C,NA,default,26,Yes,Study was fun all the way.,Male,English,NA,43
2254,default,block2,emma,projective,0,10084,hear,49,hear,C,NA,default,26,Yes,Study was fun all the way.,Male,English,NA,44
2254,default,block2,charley,projective,0.44,3803,demonstrate,50,demonstrate,C,NA,default,26,Yes,Study was fun all the way.,Male,English,NA,45
2254,default,block2,tony,projective,0.73,5902,confess,51,confess,C,NA,default,26,Yes,Study was fun all the way.,Male,English,NA,46
2254,default,block2,hat,projective,0.72,59306,MC,52,MC,MC,NA,default,26,Yes,Study was fun all the way.,Male,English,NA,47
2254,default,block2,sophia,projective,0.29,33607,inform,53,inform,C,NA,default,26,Yes,Study was fun all the way.,Male,English,NA,48
2254,default,block2,danny,projective,0.72,8514,know,54,know,C,NA,default,26,Yes,Study was fun all the way.,Male,English,NA,49
2254,default,block2,julian,projective,0.72,946886,suggest,55,suggest,C,NA,default,26,Yes,Study was fun all the way.,Male,English,NA,50
2254,default,block2,josie,projective,1,101459,announce,56,announce,C,NA,default,26,Yes,Study was fun all the way.,Male,English,NA,51
2254,default,block2,pizza,projective,0.96,2957,MC,57,MC,MC,NA,default,26,Yes,Study was fun all the way.,Male,English,NA,52
2175,default,block1,olivia,projective,0.27,24705,prove,5,prove,C,NA,default,57,Yes,It was interesting how I felt about certain responses to certain statements.,Female,English,NA,1
2175,default,block1,charley,projective,0.75,27990,announce,6,announce,C,NA,default,57,Yes,It was interesting how I felt about certain responses to certain statements.,Female,English,NA,2
2175,default,block1,jayden,projective,0.7,23085,inform,7,inform,C,NA,default,57,Yes,It was interesting how I felt about certain responses to certain statements.,Female,English,NA,3
2175,default,block1,danny,projective,0.28,8044,establish,8,establish,C,NA,default,57,Yes,It was interesting how I felt about certain responses to certain statements.,Female,English,NA,4
2175,default,block1,grace,projective,0.26,7189,see,9,see,C,NA,default,57,Yes,It was interesting how I felt about certain responses to certain statements.,Female,English,NA,5
2175,default,block1,garage,projective,0.98,9428,MC,10,MC,MC,NA,default,57,Yes,It was interesting how I felt about certain responses to certain statements.,Female,English,NA,6
2175,default,block1,jackson,projective,0.21,8415,be_right,11,be_right,C,NA,default,57,Yes,It was interesting how I felt about certain responses to certain statements.,Female,English,NA,7
2175,default,block1,tony,projective,0.73,15199,acknowledge,12,acknowledge,C,NA,default,57,Yes,It was interesting how I felt about certain responses to certain statements.,Female,English,NA,8
2175,default,block1,mia,projective,0.21,6221,discover,13,discover,C,NA,default,57,Yes,It was interesting how I felt about certain responses to certain statements.,Female,English,NA,9
2175,default,block1,pizza,projective,0.99,8617,MC,14,MC,MC,NA,default,57,Yes,It was interesting how I felt about certain responses to certain statements.,Female,English,NA,10
2175,default,block1,mary,projective,0.19,7189,think,15,think,C,NA,default,57,Yes,It was interesting how I felt about certain responses to certain statements.,Female,English,NA,11
2175,default,block1,ballet,projective,0.99,5974,MC,16,MC,MC,NA,default,57,Yes,It was interesting how I felt about certain responses to certain statements.,Female,English,NA,12
2175,default,block1,josie,projective,0.16,7808,say,17,say,C,NA,default,57,Yes,It was interesting how I felt about certain responses to certain statements.,Female,English,NA,13
2175,default,block1,jon,projective,0.76,6806,know,18,know,C,NA,default,57,Yes,It was interesting how I felt about certain responses to certain statements.,Female,English,NA,14
2175,default,block1,kids,projective,0.99,7482,MC,19,MC,MC,NA,default,57,Yes,It was interesting how I felt about certain responses to certain statements.,Female,English,NA,15
2175,default,block1,hat,projective,0.97,5107,MC,20,MC,MC,NA,default,57,Yes,It was interesting how I felt about certain responses to certain statements.,Female,English,NA,16
2175,default,block1,emma,projective,0.23,9934,suggest,21,suggest,C,NA,default,57,Yes,It was interesting how I felt about certain responses to certain statements.,Female,English,NA,17
2175,default,block1,sophia,projective,0.87,9676,confess,22,confess,C,NA,default,57,Yes,It was interesting how I felt about certain responses to certain statements.,Female,English,NA,18
2175,default,block1,josh,projective,0.8,14119,demonstrate,23,demonstrate,C,NA,default,57,Yes,It was interesting how I felt about certain responses to certain statements.,Female,English,NA,19
2175,default,block1,muffins,projective,0.98,7076,MC,24,MC,MC,NA,default,57,Yes,It was interesting how I felt about certain responses to certain statements.,Female,English,NA,20
2175,default,block1,frank,projective,0.99,6829,reveal,25,reveal,C,NA,default,57,Yes,It was interesting how I felt about certain responses to certain statements.,Female,English,NA,21
2175,default,block1,owen,projective,0.81,7673,confirm,26,confirm,C,NA,default,57,Yes,It was interesting how I felt about certain responses to certain statements.,Female,English,NA,22
2175,default,block1,zoe,projective,0.25,9607,hear,27,hear,C,NA,default,57,Yes,It was interesting how I felt about certain responses to certain statements.,Female,English,NA,23
2175,default,block1,julian,projective,0.98,6919,be_annoyed,28,be_annoyed,C,NA,default,57,Yes,It was interesting how I felt about certain responses to certain statements.,Female,English,NA,24
2175,default,block1,isabella,projective,0.17,5727,pretend,29,pretend,C,NA,default,57,Yes,It was interesting how I felt about certain responses to certain statements.,Female,English,NA,25
2175,default,block1,emily,projective,0.78,7729,admit,30,admit,C,NA,default,57,Yes,It was interesting how I felt about certain responses to certain statements.,Female,English,NA,26
2175,default,block2,tony,ai,0.55,20812,acknowledge,32,acknowledge,C,NA,default,57,Yes,It was interesting how I felt about certain responses to certain statements.,Female,English,NA,27
2175,default,block2,sophia,ai,0.18999999999999995,7628,confess,33,confess,C,NA,default,57,Yes,It was interesting how I felt about certain responses to certain statements.,Female,English,NA,28
2175,default,block2,josh,ai,0.72,8798,demonstrate,34,demonstrate,C,NA,default,57,Yes,It was interesting how I felt about certain responses to certain statements.,Female,English,NA,29
2175,default,block2,emma,ai,0.71,9866,suggest,35,suggest,C,NA,default,57,Yes,It was interesting how I felt about certain responses to certain statements.,Female,English,NA,30
2175,default,block2,josie,ai,0.53,7650,say,36,say,C,NA,default,57,Yes,It was interesting how I felt about certain responses to certain statements.,Female,English,NA,31
2175,default,block2,jon,ai,0.14,6773,know,37,know,C,NA,default,57,Yes,It was interesting how I felt about certain responses to certain statements.,Female,English,NA,32
2175,default,block2,jackson,ai,0.47,9372,be_right,38,be_right,C,NA,default,57,Yes,It was interesting how I felt about certain responses to certain statements.,Female,English,NA,33
2175,default,block2,charley,ai,0.51,23389,announce,39,announce,C,NA,default,57,Yes,It was interesting how I felt about certain responses to certain statements.,Female,English,NA,34
2175,default,block2,garage,ai,0.21999999999999997,5411,MC,40,MC,MC,NA,default,57,Yes,It was interesting how I felt about certain responses to certain statements.,Female,English,NA,35
2175,default,block2,hat,ai,0.69,8101,MC,41,MC,MC,NA,default,57,Yes,It was interesting how I felt about certain responses to certain statements.,Female,English,NA,36
2175,default,block2,mia,ai,0.52,5186,discover,42,discover,C,NA,default,57,Yes,It was interesting how I felt about certain responses to certain statements.,Female,English,NA,37
2175,default,block2,frank,ai,0.25,4522,reveal,43,reveal,C,NA,default,57,Yes,It was interesting how I felt about certain responses to certain statements.,Female,English,NA,38
2175,default,block2,mary,ai,0.49,4454,think,44,think,C,NA,default,57,Yes,It was interesting how I felt about certain responses to certain statements.,Female,English,NA,39
2175,default,block2,grace,ai,0.52,4656,see,45,see,C,NA,default,57,Yes,It was interesting how I felt about certain responses to certain statements.,Female,English,NA,40
2175,default,block2,ballet,ai,0.24,4208,MC,46,MC,MC,NA,default,57,Yes,It was interesting how I felt about certain responses to certain statements.,Female,English,NA,41
2175,default,block2,pizza,ai,0.6599999999999999,5287,MC,47,MC,MC,NA,default,57,Yes,It was interesting how I felt about certain responses to certain statements.,Female,English,NA,42
2175,default,block2,emily,ai,0.44999999999999996,5287,admit,48,admit,C,NA,default,57,Yes,It was interesting how I felt about certain responses to certain statements.,Female,English,NA,43
2175,default,block2,julian,ai,0.6699999999999999,9372,be_annoyed,49,be_annoyed,C,NA,default,57,Yes,It was interesting how I felt about certain responses to certain statements.,Female,English,NA,44
2175,default,block2,kids,ai,0.29000000000000004,25031,MC,50,MC,MC,NA,default,57,Yes,It was interesting how I felt about certain responses to certain statements.,Female,English,NA,45
2175,default,block2,owen,ai,0.51,6502,confirm,51,confirm,C,NA,default,57,Yes,It was interesting how I felt about certain responses to certain statements.,Female,English,NA,46
2175,default,block2,muffins,ai,0.6799999999999999,5120,MC,52,MC,MC,NA,default,57,Yes,It was interesting how I felt about certain responses to certain statements.,Female,English,NA,47
2175,default,block2,jayden,ai,0.6799999999999999,5827,inform,53,inform,C,NA,default,57,Yes,It was interesting how I felt about certain responses to certain statements.,Female,English,NA,48
2175,default,block2,olivia,ai,0.33999999999999997,8123,prove,54,prove,C,NA,default,57,Yes,It was interesting how I felt about certain responses to certain statements.,Female,English,NA,49
2175,default,block2,zoe,ai,0.49,4725,hear,55,hear,C,NA,default,57,Yes,It was interesting how I felt about certain responses to certain statements.,Female,English,NA,50
2175,default,block2,isabella,ai,0.88,6908,pretend,56,pretend,C,NA,default,57,Yes,It was interesting how I felt about certain responses to certain statements.,Female,English,NA,51
2175,default,block2,danny,ai,0.24,6907,establish,57,establish,C,NA,default,57,Yes,It was interesting how I felt about certain responses to certain statements.,Female,English,NA,52
2006,default,block1,grace,projective,0.99,11215,know,5,know,C,NA,default,21,Yes,"Very confused about the second part of the survey and what qualifies as a ""good"" response.",Female,English,NA,1
2006,default,block1,mary,projective,0.98,3767,discover,6,discover,C,NA,default,21,Yes,"Very confused about the second part of the survey and what qualifies as a ""good"" response.",Female,English,NA,2
2006,default,block1,emma,projective,0,12504,suggest,7,suggest,C,NA,default,21,Yes,"Very confused about the second part of the survey and what qualifies as a ""good"" response.",Female,English,NA,3
2006,default,block1,mia,projective,0.69,10320,confirm,8,confirm,C,NA,default,21,Yes,"Very confused about the second part of the survey and what qualifies as a ""good"" response.",Female,English,NA,4
2006,default,block1,emily,projective,0.78,7312,acknowledge,9,acknowledge,C,NA,default,21,Yes,"Very confused about the second part of the survey and what qualifies as a ""good"" response.",Female,English,NA,5
2006,default,block1,muffins,projective,1,5360,MC,10,MC,MC,NA,default,21,Yes,"Very confused about the second part of the survey and what qualifies as a ""good"" response.",Female,English,NA,6
2006,default,block1,pizza,projective,1,4440,MC,11,MC,MC,NA,default,21,Yes,"Very confused about the second part of the survey and what qualifies as a ""good"" response.",Female,English,NA,7
2006,default,block1,olivia,projective,0.63,11288,confess,12,confess,C,NA,default,21,Yes,"Very confused about the second part of the survey and what qualifies as a ""good"" response.",Female,English,NA,8
2006,default,block1,zoe,projective,0.19,8464,be_right,13,be_right,C,NA,default,21,Yes,"Very confused about the second part of the survey and what qualifies as a ""good"" response.",Female,English,NA,9
2006,default,block1,kids,projective,1,7792,MC,14,MC,MC,NA,default,21,Yes,"Very confused about the second part of the survey and what qualifies as a ""good"" response.",Female,English,NA,10
2006,default,block1,julian,projective,0.82,4304,hear,15,hear,C,NA,default,21,Yes,"Very confused about the second part of the survey and what qualifies as a ""good"" response.",Female,English,NA,11
2006,default,block1,tony,projective,0.7,4736,establish,16,establish,C,NA,default,21,Yes,"Very confused about the second part of the survey and what qualifies as a ""good"" response.",Female,English,NA,12
2006,default,block1,garage,projective,1,5712,MC,17,MC,MC,NA,default,21,Yes,"Very confused about the second part of the survey and what qualifies as a ""good"" response.",Female,English,NA,13
2006,default,block1,josh,projective,0.59,5584,announce,18,announce,C,NA,default,21,Yes,"Very confused about the second part of the survey and what qualifies as a ""good"" response.",Female,English,NA,14
2006,default,block1,owen,projective,0.83,7344,reveal,19,reveal,C,NA,default,21,Yes,"Very confused about the second part of the survey and what qualifies as a ""good"" response.",Female,English,NA,15
2006,default,block1,jayden,projective,0.31,5976,think,20,think,C,NA,default,21,Yes,"Very confused about the second part of the survey and what qualifies as a ""good"" response.",Female,English,NA,16
2006,default,block1,jackson,projective,1,5784,admit,21,admit,C,NA,default,21,Yes,"Very confused about the second part of the survey and what qualifies as a ""good"" response.",Female,English,NA,17
2006,default,block1,hat,projective,0.99,4240,MC,22,MC,MC,NA,default,21,Yes,"Very confused about the second part of the survey and what qualifies as a ""good"" response.",Female,English,NA,18
2006,default,block1,isabella,projective,0.37,6312,demonstrate,23,demonstrate,C,NA,default,21,Yes,"Very confused about the second part of the survey and what qualifies as a ""good"" response.",Female,English,NA,19
2006,default,block1,josie,projective,1,4920,be_annoyed,24,be_annoyed,C,NA,default,21,Yes,"Very confused about the second part of the survey and what qualifies as a ""good"" response.",Female,English,NA,20
2006,default,block1,jon,projective,0.78,7608,inform,25,inform,C,NA,default,21,Yes,"Very confused about the second part of the survey and what qualifies as a ""good"" response.",Female,English,NA,21
2006,default,block1,sophia,projective,0.19,6352,say,26,say,C,NA,default,21,Yes,"Very confused about the second part of the survey and what qualifies as a ""good"" response.",Female,English,NA,22
2006,default,block1,danny,projective,0,7344,pretend,27,pretend,C,NA,default,21,Yes,"Very confused about the second part of the survey and what qualifies as a ""good"" response.",Female,English,NA,23
2006,default,block1,ballet,projective,1,5095,MC,28,MC,MC,NA,default,21,Yes,"Very confused about the second part of the survey and what qualifies as a ""good"" response.",Female,English,NA,24
2006,default,block1,frank,projective,1,3152,see,29,see,C,NA,default,21,Yes,"Very confused about the second part of the survey and what qualifies as a ""good"" response.",Female,English,NA,25
2006,default,block1,charley,projective,1,5608,prove,30,prove,C,NA,default,21,Yes,"Very confused about the second part of the survey and what qualifies as a ""good"" response.",Female,English,NA,26
2006,default,block2,garage,ai,0.71,11239,MC,32,MC,MC,NA,default,21,Yes,"Very confused about the second part of the survey and what qualifies as a ""good"" response.",Female,English,NA,27
2006,default,block2,ballet,ai,0.33999999999999997,6097,MC,33,MC,MC,NA,default,21,Yes,"Very confused about the second part of the survey and what qualifies as a ""good"" response.",Female,English,NA,28
2006,default,block2,jon,ai,0.65,4256,inform,34,inform,C,NA,default,21,Yes,"Very confused about the second part of the survey and what qualifies as a ""good"" response.",Female,English,NA,29
2006,default,block2,danny,ai,0.22999999999999998,7647,pretend,35,pretend,C,NA,default,21,Yes,"Very confused about the second part of the survey and what qualifies as a ""good"" response.",Female,English,NA,30
2006,default,block2,owen,ai,0.31999999999999995,4743,reveal,36,reveal,C,NA,default,21,Yes,"Very confused about the second part of the survey and what qualifies as a ""good"" response.",Female,English,NA,31
2006,default,block2,mary,ai,0,3881,discover,37,discover,C,NA,default,21,Yes,"Very confused about the second part of the survey and what qualifies as a ""good"" response.",Female,English,NA,32
2006,default,block2,jackson,ai,0,4416,admit,38,admit,C,NA,default,21,Yes,"Very confused about the second part of the survey and what qualifies as a ""good"" response.",Female,English,NA,33
2006,default,block2,josie,ai,0.74,5728,be_annoyed,39,be_annoyed,C,NA,default,21,Yes,"Very confused about the second part of the survey and what qualifies as a ""good"" response.",Female,English,NA,34
2006,default,block2,emma,ai,0.69,4968,suggest,40,suggest,C,NA,default,21,Yes,"Very confused about the second part of the survey and what qualifies as a ""good"" response.",Female,English,NA,35
2006,default,block2,julian,ai,0.10999999999999999,3096,hear,41,hear,C,NA,default,21,Yes,"Very confused about the second part of the survey and what qualifies as a ""good"" response.",Female,English,NA,36
2006,default,block2,charley,ai,0.30000000000000004,4312,prove,42,prove,C,NA,default,21,Yes,"Very confused about the second part of the survey and what qualifies as a ""good"" response.",Female,English,NA,37
2006,default,block2,mia,ai,0.26,4040,confirm,43,confirm,C,NA,default,21,Yes,"Very confused about the second part of the survey and what qualifies as a ""good"" response.",Female,English,NA,38
2006,default,block2,sophia,ai,0.7,7272,say,44,say,C,NA,default,21,Yes,"Very confused about the second part of the survey and what qualifies as a ""good"" response.",Female,English,NA,39
2006,default,block2,isabella,ai,0.32999999999999996,4536,demonstrate,45,demonstrate,C,NA,default,21,Yes,"Very confused about the second part of the survey and what qualifies as a ""good"" response.",Female,English,NA,40
2006,default,block2,pizza,ai,0.20999999999999996,1759,MC,46,MC,MC,NA,default,21,Yes,"Very confused about the second part of the survey and what qualifies as a ""good"" response.",Female,English,NA,41
2006,default,block2,hat,ai,0.30000000000000004,1288,MC,47,MC,MC,NA,default,21,Yes,"Very confused about the second part of the survey and what qualifies as a ""good"" response.",Female,English,NA,42
2006,default,block2,jayden,ai,0.22999999999999998,1415,think,48,think,C,NA,default,21,Yes,"Very confused about the second part of the survey and what qualifies as a ""good"" response.",Female,English,NA,43
2006,default,block2,grace,ai,0.06999999999999995,1833,know,49,know,C,NA,default,21,Yes,"Very confused about the second part of the survey and what qualifies as a ""good"" response.",Female,English,NA,44
2006,default,block2,zoe,ai,0,1856,be_right,50,be_right,C,NA,default,21,Yes,"Very confused about the second part of the survey and what qualifies as a ""good"" response.",Female,English,NA,45
2006,default,block2,kids,ai,0.050000000000000044,3032,MC,51,MC,MC,NA,default,21,Yes,"Very confused about the second part of the survey and what qualifies as a ""good"" response.",Female,English,NA,46
2006,default,block2,muffins,ai,0,2072,MC,52,MC,MC,NA,default,21,Yes,"Very confused about the second part of the survey and what qualifies as a ""good"" response.",Female,English,NA,47
2006,default,block2,olivia,ai,0.18000000000000005,2416,confess,53,confess,C,NA,default,21,Yes,"Very confused about the second part of the survey and what qualifies as a ""good"" response.",Female,English,NA,48
2006,default,block2,josh,ai,0.79,1672,announce,54,announce,C,NA,default,21,Yes,"Very confused about the second part of the survey and what qualifies as a ""good"" response.",Female,English,NA,49
2006,default,block2,frank,ai,0,3768,see,55,see,C,NA,default,21,Yes,"Very confused about the second part of the survey and what qualifies as a ""good"" response.",Female,English,NA,50
2006,default,block2,emily,ai,0.14,2063,acknowledge,56,acknowledge,C,NA,default,21,Yes,"Very confused about the second part of the survey and what qualifies as a ""good"" response.",Female,English,NA,51
2006,default,block2,tony,ai,0.13,1688,establish,57,establish,C,NA,default,21,Yes,"Very confused about the second part of the survey and what qualifies as a ""good"" response.",Female,English,NA,52
2045,default,block1,danny,ai,0.14,22167,see,5,see,C,NA,default,34,Yes,"I have no comment for now, when i do, I'll reach out",Male,English,NA,1
2045,default,block1,hat,ai,0.09999999999999998,22503,MC,6,MC,MC,NA,default,34,Yes,"I have no comment for now, when i do, I'll reach out",Male,English,NA,2
2045,default,block1,emily,ai,0.26,27842,hear,7,hear,C,NA,default,34,Yes,"I have no comment for now, when i do, I'll reach out",Male,English,NA,3
2045,default,block1,mia,ai,0.050000000000000044,10137,discover,8,discover,C,NA,default,34,Yes,"I have no comment for now, when i do, I'll reach out",Male,English,NA,4
2045,default,block1,muffins,ai,0.17000000000000004,8488,MC,9,MC,MC,NA,default,34,Yes,"I have no comment for now, when i do, I'll reach out",Male,English,NA,5
2045,default,block1,tony,ai,0.19999999999999996,13559,be_annoyed,10,be_annoyed,C,NA,default,34,Yes,"I have no comment for now, when i do, I'll reach out",Male,English,NA,6
2045,default,block1,charley,ai,0.18999999999999995,11817,establish,11,establish,C,NA,default,34,Yes,"I have no comment for now, when i do, I'll reach out",Male,English,NA,7
2045,default,block1,jayden,ai,0.26,10794,confess,12,confess,C,NA,default,34,Yes,"I have no comment for now, when i do, I'll reach out",Male,English,NA,8
2045,default,block1,mary,ai,0.35,12389,reveal,13,reveal,C,NA,default,34,Yes,"I have no comment for now, when i do, I'll reach out",Male,English,NA,9
2045,default,block1,josie,ai,0.18999999999999995,13809,be_right,14,be_right,C,NA,default,34,Yes,"I have no comment for now, when i do, I'll reach out",Male,English,NA,10
2045,default,block1,owen,ai,0.27,12542,inform,15,inform,C,NA,default,34,Yes,"I have no comment for now, when i do, I'll reach out",Male,English,NA,11
2045,default,block1,isabella,ai,0.21999999999999997,6201,announce,16,announce,C,NA,default,34,Yes,"I have no comment for now, when i do, I'll reach out",Male,English,NA,12
2045,default,block1,pizza,ai,0.25,9518,MC,17,MC,MC,NA,default,34,Yes,"I have no comment for now, when i do, I'll reach out",Male,English,NA,13
2045,default,block1,emma,ai,0.26,9949,confirm,18,confirm,C,NA,default,34,Yes,"I have no comment for now, when i do, I'll reach out",Male,English,NA,14
2045,default,block1,jon,ai,0.26,8780,know,19,know,C,NA,default,34,Yes,"I have no comment for now, when i do, I'll reach out",Male,English,NA,15
2045,default,block1,josh,ai,0.24,10206,demonstrate,20,demonstrate,C,NA,default,34,Yes,"I have no comment for now, when i do, I'll reach out",Male,English,NA,16
2045,default,block1,frank,ai,0.21999999999999997,7165,admit,21,admit,C,NA,default,34,Yes,"I have no comment for now, when i do, I'll reach out",Male,English,NA,17
2045,default,block1,ballet,ai,0.25,8080,MC,22,MC,MC,NA,default,34,Yes,"I have no comment for now, when i do, I'll reach out",Male,English,NA,18
2045,default,block1,olivia,ai,0.26,6909,say,23,say,C,NA,default,34,Yes,"I have no comment for now, when i do, I'll reach out",Male,English,NA,19
2045,default,block1,jackson,ai,0.24,9464,suggest,24,suggest,C,NA,default,34,Yes,"I have no comment for now, when i do, I'll reach out",Male,English,NA,20
2045,default,block1,kids,ai,0.24,10321,MC,25,MC,MC,NA,default,34,Yes,"I have no comment for now, when i do, I'll reach out",Male,English,NA,21
2045,default,block1,zoe,ai,0.25,5056,pretend,26,pretend,C,NA,default,34,Yes,"I have no comment for now, when i do, I'll reach out",Male,English,NA,22
2045,default,block1,garage,ai,0.27,8636,MC,27,MC,MC,NA,default,34,Yes,"I have no comment for now, when i do, I'll reach out",Male,English,NA,23
2045,default,block1,grace,ai,0.19999999999999996,4801,prove,28,prove,C,NA,default,34,Yes,"I have no comment for now, when i do, I'll reach out",Male,English,NA,24
2045,default,block1,sophia,ai,0.20999999999999996,3128,acknowledge,29,acknowledge,C,NA,default,34,Yes,"I have no comment for now, when i do, I'll reach out",Male,English,NA,25
2045,default,block1,julian,ai,0.32999999999999996,7748,think,30,think,C,NA,default,34,Yes,"I have no comment for now, when i do, I'll reach out",Male,English,NA,26
2045,default,block2,isabella,projective,0.3,21032,announce,32,announce,C,NA,default,34,Yes,"I have no comment for now, when i do, I'll reach out",Male,English,NA,27
2045,default,block2,charley,projective,0.24,9863,establish,33,establish,C,NA,default,34,Yes,"I have no comment for now, when i do, I'll reach out",Male,English,NA,28
2045,default,block2,emily,projective,0.27,5538,hear,34,hear,C,NA,default,34,Yes,"I have no comment for now, when i do, I'll reach out",Male,English,NA,29
2045,default,block2,muffins,projective,0.97,19394,MC,35,MC,MC,NA,default,34,Yes,"I have no comment for now, when i do, I'll reach out",Male,English,NA,30
2045,default,block2,olivia,projective,0.17,10381,say,36,say,C,NA,default,34,Yes,"I have no comment for now, when i do, I'll reach out",Male,English,NA,31
2045,default,block2,jayden,projective,0.24,7239,confess,37,confess,C,NA,default,34,Yes,"I have no comment for now, when i do, I'll reach out",Male,English,NA,32
2045,default,block2,julian,projective,0.06,16023,think,38,think,C,NA,default,34,Yes,"I have no comment for now, when i do, I'll reach out",Male,English,NA,33
2045,default,block2,garage,projective,0.94,12986,MC,39,MC,MC,NA,default,34,Yes,"I have no comment for now, when i do, I'll reach out",Male,English,NA,34
2045,default,block2,mary,projective,0.48,9351,reveal,40,reveal,C,NA,default,34,Yes,"I have no comment for now, when i do, I'll reach out",Male,English,NA,35
2045,default,block2,zoe,projective,0.07,26375,pretend,41,pretend,C,NA,default,34,Yes,"I have no comment for now, when i do, I'll reach out",Male,English,NA,36
2045,default,block2,sophia,projective,0.87,11610,acknowledge,42,acknowledge,C,NA,default,34,Yes,"I have no comment for now, when i do, I'll reach out",Male,English,NA,37
2045,default,block2,tony,projective,0.34,5939,be_annoyed,43,be_annoyed,C,NA,default,34,Yes,"I have no comment for now, when i do, I'll reach out",Male,English,NA,38
2045,default,block2,jon,projective,0.67,10944,know,44,know,C,NA,default,34,Yes,"I have no comment for now, when i do, I'll reach out",Male,English,NA,39
2045,default,block2,josie,projective,0.72,11617,be_right,45,be_right,C,NA,default,34,Yes,"I have no comment for now, when i do, I'll reach out",Male,English,NA,40
2045,default,block2,jackson,projective,0.29,12771,suggest,46,suggest,C,NA,default,34,Yes,"I have no comment for now, when i do, I'll reach out",Male,English,NA,41
2045,default,block2,grace,projective,0.83,11491,prove,47,prove,C,NA,default,34,Yes,"I have no comment for now, when i do, I'll reach out",Male,English,NA,42
2045,default,block2,ballet,projective,0.92,11046,MC,48,MC,MC,NA,default,34,Yes,"I have no comment for now, when i do, I'll reach out",Male,English,NA,43
2045,default,block2,pizza,projective,0.98,8470,MC,49,MC,MC,NA,default,34,Yes,"I have no comment for now, when i do, I'll reach out",Male,English,NA,44
2045,default,block2,kids,projective,0.97,11930,MC,50,MC,MC,NA,default,34,Yes,"I have no comment for now, when i do, I'll reach out",Male,English,NA,45
2045,default,block2,danny,projective,0.6,8329,see,51,see,C,NA,default,34,Yes,"I have no comment for now, when i do, I'll reach out",Male,English,NA,46
2045,default,block2,emma,projective,0.82,10287,confirm,52,confirm,C,NA,default,34,Yes,"I have no comment for now, when i do, I'll reach out",Male,English,NA,47
2045,default,block2,hat,projective,0.94,9168,MC,53,MC,MC,NA,default,34,Yes,"I have no comment for now, when i do, I'll reach out",Male,English,NA,48
2045,default,block2,owen,projective,0.7,26128,inform,54,inform,C,NA,default,34,Yes,"I have no comment for now, when i do, I'll reach out",Male,English,NA,49
2045,default,block2,frank,projective,0.79,9522,admit,55,admit,C,NA,default,34,Yes,"I have no comment for now, when i do, I'll reach out",Male,English,NA,50
2045,default,block2,josh,projective,0.78,7540,demonstrate,56,demonstrate,C,NA,default,34,Yes,"I have no comment for now, when i do, I'll reach out",Male,English,NA,51
2045,default,block2,mia,projective,0.8,8459,discover,57,discover,C,NA,default,34,Yes,"I have no comment for now, when i do, I'll reach out",Male,English,NA,52
2131,default,block1,pizza,projective,1,5260,MC,5,MC,MC,NA,default,20,Yes,NA,Male,English,NA,1
2131,default,block1,frank,projective,0.32,7032,establish,6,establish,C,NA,default,20,Yes,NA,Male,English,NA,2
2131,default,block1,grace,projective,0.72,8520,confess,7,confess,C,NA,default,20,Yes,NA,Male,English,NA,3
2131,default,block1,tony,projective,0.56,7349,acknowledge,8,acknowledge,C,NA,default,20,Yes,NA,Male,English,NA,4
2131,default,block1,sophia,projective,0.81,3855,know,9,know,C,NA,default,20,Yes,NA,Male,English,NA,5
2131,default,block1,owen,projective,0.3,6204,prove,10,prove,C,NA,default,20,Yes,NA,Male,English,NA,6
2131,default,block1,jon,projective,0.82,3945,inform,11,inform,C,NA,default,20,Yes,NA,Male,English,NA,7
2131,default,block1,olivia,projective,0.2,3895,think,12,think,C,NA,default,20,Yes,NA,Male,English,NA,8
2131,default,block1,emma,projective,0.76,6171,confirm,13,confirm,C,NA,default,20,Yes,NA,Male,English,NA,9
2131,default,block1,jayden,projective,0.78,3536,admit,14,admit,C,NA,default,20,Yes,NA,Male,English,NA,10
2131,default,block1,muffins,projective,0.99,4011,MC,15,MC,MC,NA,default,20,Yes,NA,Male,English,NA,11
2131,default,block1,jackson,projective,0.29,6229,demonstrate,16,demonstrate,C,NA,default,20,Yes,NA,Male,English,NA,12
2131,default,block1,isabella,projective,0.12,29874,pretend,17,pretend,C,NA,default,20,Yes,NA,Male,English,NA,13
2131,default,block1,charley,projective,0.79,7514,be_annoyed,18,be_annoyed,C,NA,default,20,Yes,NA,Male,English,NA,14
2131,default,block1,danny,projective,0.16,4754,suggest,19,suggest,C,NA,default,20,Yes,NA,Male,English,NA,15
2131,default,block1,ballet,projective,0.93,4165,MC,20,MC,MC,NA,default,20,Yes,NA,Male,English,NA,16
2131,default,block1,emily,projective,0.15,11195,say,21,say,C,NA,default,20,Yes,NA,Male,English,NA,17
2131,default,block1,josie,projective,0.73,3379,reveal,22,reveal,C,NA,default,20,Yes,NA,Male,English,NA,18
2131,default,block1,zoe,projective,0.21,3953,see,23,see,C,NA,default,20,Yes,NA,Male,English,NA,19
2131,default,block1,garage,projective,0.81,39248,MC,24,MC,MC,NA,default,20,Yes,NA,Male,English,NA,20
2131,default,block1,josh,projective,0.7,51466,hear,25,hear,C,NA,default,20,Yes,NA,Male,English,NA,21
2131,default,block1,mia,projective,0.73,3224,discover,26,discover,C,NA,default,20,Yes,NA,Male,English,NA,22
2131,default,block1,mary,projective,0.77,3789,announce,27,announce,C,NA,default,20,Yes,NA,Male,English,NA,23
2131,default,block1,kids,projective,0.89,4787,MC,28,MC,MC,NA,default,20,Yes,NA,Male,English,NA,24
2131,default,block1,julian,projective,0.17,11703,be_right,29,be_right,C,NA,default,20,Yes,NA,Male,English,NA,25
2131,default,block1,hat,projective,0.88,37197,MC,30,MC,MC,NA,default,20,Yes,NA,Male,English,NA,26
2131,default,block2,danny,ai,0.25,6209,suggest,32,suggest,C,NA,default,20,Yes,NA,Male,English,NA,27
2131,default,block2,emma,ai,0.13,4287,confirm,33,confirm,C,NA,default,20,Yes,NA,Male,English,NA,28
2131,default,block2,charley,ai,0.9,4035,be_annoyed,34,be_annoyed,C,NA,default,20,Yes,NA,Male,English,NA,29
2131,default,block2,mary,ai,0.17000000000000004,2814,announce,35,announce,C,NA,default,20,Yes,NA,Male,English,NA,30
2131,default,block2,hat,ai,0.15000000000000002,3248,MC,36,MC,MC,NA,default,20,Yes,NA,Male,English,NA,31
2131,default,block2,olivia,ai,0.09999999999999998,3094,think,37,think,C,NA,default,20,Yes,NA,Male,English,NA,32
2131,default,block2,julian,ai,0.13,3289,be_right,38,be_right,C,NA,default,20,Yes,NA,Male,English,NA,33
2131,default,block2,muffins,ai,0.13,4117,MC,39,MC,MC,NA,default,20,Yes,NA,Male,English,NA,34
2131,default,block2,jayden,ai,0.15000000000000002,3927,admit,40,admit,C,NA,default,20,Yes,NA,Male,English,NA,35
2131,default,block2,tony,ai,0.17000000000000004,8052,acknowledge,41,acknowledge,C,NA,default,20,Yes,NA,Male,English,NA,36
2131,default,block2,owen,ai,0.14,5516,prove,42,prove,C,NA,default,20,Yes,NA,Male,English,NA,37
2131,default,block2,josh,ai,0.87,11457,hear,43,hear,C,NA,default,20,Yes,NA,Male,English,NA,38
2131,default,block2,garage,ai,0.10999999999999999,3420,MC,44,MC,MC,NA,default,20,Yes,NA,Male,English,NA,39
2131,default,block2,emily,ai,0.8,5183,say,45,say,C,NA,default,20,Yes,NA,Male,English,NA,40
2131,default,block2,mia,ai,0.86,6040,discover,46,discover,C,NA,default,20,Yes,NA,Male,English,NA,41
2131,default,block2,jon,ai,0.88,4214,inform,47,inform,C,NA,default,20,Yes,NA,Male,English,NA,42
2131,default,block2,sophia,ai,0.88,3715,know,48,know,C,NA,default,20,Yes,NA,Male,English,NA,43
2131,default,block2,ballet,ai,0.10999999999999999,5221,MC,49,MC,MC,NA,default,20,Yes,NA,Male,English,NA,44
2131,default,block2,isabella,ai,0.9,3305,pretend,50,pretend,C,NA,default,20,Yes,NA,Male,English,NA,45
2131,default,block2,jackson,ai,0.9,3142,demonstrate,51,demonstrate,C,NA,default,20,Yes,NA,Male,English,NA,46
2131,default,block2,frank,ai,0.92,3004,establish,52,establish,C,NA,default,20,Yes,NA,Male,English,NA,47
2131,default,block2,josie,ai,0.88,4468,reveal,53,reveal,C,NA,default,20,Yes,NA,Male,English,NA,48
2131,default,block2,kids,ai,0.08999999999999997,3486,MC,54,MC,MC,NA,default,20,Yes,NA,Male,English,NA,49
2131,default,block2,zoe,ai,0.89,3608,see,55,see,C,NA,default,20,Yes,NA,Male,English,NA,50
2131,default,block2,pizza,ai,0.13,3404,MC,56,MC,MC,NA,default,20,Yes,NA,Male,English,NA,51
2131,default,block2,grace,ai,0.89,4739,confess,57,confess,C,NA,default,20,Yes,NA,Male,English,NA,52
2079,default,block1,owen,projective,0.14,19073,reveal,5,reveal,C,NA,default,26,Yes,the second half of the survey was a bit confusing.,Female,English,NA,1
2079,default,block1,isabella,projective,0.21,17051,confirm,6,confirm,C,NA,default,26,Yes,the second half of the survey was a bit confusing.,Female,English,NA,2
2079,default,block1,zoe,projective,0.35,8539,suggest,7,suggest,C,NA,default,26,Yes,the second half of the survey was a bit confusing.,Female,English,NA,3
2079,default,block1,hat,projective,0.96,4622,MC,8,MC,MC,NA,default,26,Yes,the second half of the survey was a bit confusing.,Female,English,NA,4
2079,default,block1,tony,projective,0.26,7674,confess,9,confess,C,NA,default,26,Yes,the second half of the survey was a bit confusing.,Female,English,NA,5
2079,default,block1,jayden,projective,0.38,8626,establish,10,establish,C,NA,default,26,Yes,the second half of the survey was a bit confusing.,Female,English,NA,6
2079,default,block1,ballet,projective,0.88,6560,MC,11,MC,MC,NA,default,26,Yes,the second half of the survey was a bit confusing.,Female,English,NA,7
2079,default,block1,pizza,projective,0.98,5036,MC,12,MC,MC,NA,default,26,Yes,the second half of the survey was a bit confusing.,Female,English,NA,8
2079,default,block1,jackson,projective,0.69,7742,prove,13,prove,C,NA,default,26,Yes,the second half of the survey was a bit confusing.,Female,English,NA,9
2079,default,block1,garage,projective,0.95,7014,MC,14,MC,MC,NA,default,26,Yes,the second half of the survey was a bit confusing.,Female,English,NA,10
2079,default,block1,sophia,projective,0.94,6754,know,15,know,C,NA,default,26,Yes,the second half of the survey was a bit confusing.,Female,English,NA,11
2079,default,block1,mia,projective,0.25,6621,demonstrate,16,demonstrate,C,NA,default,26,Yes,the second half of the survey was a bit confusing.,Female,English,NA,12
