workerid,proliferate.condition,block,content,question_type,response,rt,short_trigger,slide_number_in_experiment,trigger,trigger_class,catch_trials,subject_information.age,subject_information.american,subject_information.comments,subject_information.gender,subject_information.language,system.Browser,system.OS,system.screenH,system.screenW,time_in_minutes,error
2186,default,block1,sophia,projective,1,21201,announce,5,announce,C,[],37,Yes,I was not sure which questions were the attention checks that was mentioned with be present but I did my best to analyze each question honestly.,Male,English,Chrome,Windows,1080,1920,8.817766666666667,
2186,default,block1,isabella,projective,1,24076,be_annoyed,6,be_annoyed,C,[],37,Yes,I was not sure which questions were the attention checks that was mentioned with be present but I did my best to analyze each question honestly.,Male,English,Chrome,Windows,1080,1920,8.817766666666667,
2186,default,block1,pizza,projective,1,9487,MC,7,MC,MC,[],37,Yes,I was not sure which questions were the attention checks that was mentioned with be present but I did my best to analyze each question honestly.,Male,English,Chrome,Windows,1080,1920,8.817766666666667,
2186,default,block1,julian,projective,0.61,12130,establish,8,establish,C,[],37,Yes,I was not sure which questions were the attention checks that was mentioned with be present but I did my best to analyze each question honestly.,Male,English,Chrome,Windows,1080,1920,8.817766666666667,
2186,default,block1,jayden,projective,0.79,11019,confirm,9,confirm,C,[],37,Yes,I was not sure which questions were the attention checks that was mentioned with be present but I did my best to analyze each question honestly.,Male,English,Chrome,Windows,1080,1920,8.817766666666667,
2186,default,block1,josh,projective,0.34,9361,admit,10,admit,C,[],37,Yes,I was not sure which questions were the attention checks that was mentioned with be present but I did my best to analyze each question honestly.,Male,English,Chrome,Windows,1080,1920,8.817766666666667,
2186,default,block1,hat,projective,1,5818,MC,11,MC,MC,[],37,Yes,I was not sure which questions were the attention checks that was mentioned with be present but I did my best to analyze each question honestly.,Male,English,Chrome,Windows,1080,1920,8.817766666666667,
2186,default,block1,ballet,projective,1,6169,MC,12,MC,MC,[],37,Yes,I was not sure which questions were the attention checks that was mentioned with be present but I did my best to analyze each question honestly.,Male,English,Chrome,Windows,1080,1920,8.817766666666667,
2186,default,block1,jackson,projective,0.24,10747,be_right,13,be_right,C,[],37,Yes,I was not sure which questions were the attention checks that was mentioned with be present but I did my best to analyze each question honestly.,Male,English,Chrome,Windows,1080,1920,8.817766666666667,
2186,default,block1,olivia,projective,0,8189,pretend,14,pretend,C,[],37,Yes,I was not sure which questions were the attention checks that was mentioned with be present but I did my best to analyze each question honestly.,Male,English,Chrome,Windows,1080,1920,8.817766666666667,
2186,default,block1,emily,projective,0,7086,suggest,15,suggest,C,[],37,Yes,I was not sure which questions were the attention checks that was mentioned with be present but I did my best to analyze each question honestly.,Male,English,Chrome,Windows,1080,1920,8.817766666666667,
2186,default,block1,kids,projective,1,15451,MC,16,MC,MC,[],37,Yes,I was not sure which questions were the attention checks that was mentioned with be present but I did my best to analyze each question honestly.,Male,English,Chrome,Windows,1080,1920,8.817766666666667,
2186,default,block1,emma,projective,0.7,8474,prove,17,prove,C,[],37,Yes,I was not sure which questions were the attention checks that was mentioned with be present but I did my best to analyze each question honestly.,Male,English,Chrome,Windows,1080,1920,8.817766666666667,
2186,default,block1,mia,projective,0,5645,hear,18,hear,C,[],37,Yes,I was not sure which questions were the attention checks that was mentioned with be present but I did my best to analyze each question honestly.,Male,English,Chrome,Windows,1080,1920,8.817766666666667,
2186,default,block1,jon,projective,0.18,7467,see,19,see,C,[],37,Yes,I was not sure which questions were the attention checks that was mentioned with be present but I did my best to analyze each question honestly.,Male,English,Chrome,Windows,1080,1920,8.817766666666667,
2186,default,block1,muffins,projective,1,5941,MC,20,MC,MC,[],37,Yes,I was not sure which questions were the attention checks that was mentioned with be present but I did my best to analyze each question honestly.,Male,English,Chrome,Windows,1080,1920,8.817766666666667,
2186,default,block1,mary,projective,0,7332,confess,21,confess,C,[],37,Yes,I was not sure which questions were the attention checks that was mentioned with be present but I did my best to analyze each question honestly.,Male,English,Chrome,Windows,1080,1920,8.817766666666667,
2186,default,block1,danny,projective,1,9082,discover,22,discover,C,[],37,Yes,I was not sure which questions were the attention checks that was mentioned with be present but I did my best to analyze each question honestly.,Male,English,Chrome,Windows,1080,1920,8.817766666666667,
2186,default,block1,owen,projective,0.73,6632,acknowledge,23,acknowledge,C,[],37,Yes,I was not sure which questions were the attention checks that was mentioned with be present but I did my best to analyze each question honestly.,Male,English,Chrome,Windows,1080,1920,8.817766666666667,
2186,default,block1,zoe,projective,0.27,9128,demonstrate,24,demonstrate,C,[],37,Yes,I was not sure which questions were the attention checks that was mentioned with be present but I did my best to analyze each question honestly.,Male,English,Chrome,Windows,1080,1920,8.817766666666667,
2186,default,block1,garage,projective,1,11036,MC,25,MC,MC,[],37,Yes,I was not sure which questions were the attention checks that was mentioned with be present but I did my best to analyze each question honestly.,Male,English,Chrome,Windows,1080,1920,8.817766666666667,
2186,default,block1,tony,projective,1,10977,inform,26,inform,C,[],37,Yes,I was not sure which questions were the attention checks that was mentioned with be present but I did my best to analyze each question honestly.,Male,English,Chrome,Windows,1080,1920,8.817766666666667,
2186,default,block1,josie,projective,1,6229,know,27,know,C,[],37,Yes,I was not sure which questions were the attention checks that was mentioned with be present but I did my best to analyze each question honestly.,Male,English,Chrome,Windows,1080,1920,8.817766666666667,
2186,default,block1,grace,projective,0,7132,think,28,think,C,[],37,Yes,I was not sure which questions were the attention checks that was mentioned with be present but I did my best to analyze each question honestly.,Male,English,Chrome,Windows,1080,1920,8.817766666666667,
2186,default,block1,frank,projective,1,5469,reveal,29,reveal,C,[],37,Yes,I was not sure which questions were the attention checks that was mentioned with be present but I did my best to analyze each question honestly.,Male,English,Chrome,Windows,1080,1920,8.817766666666667,
2186,default,block1,charley,projective,0,7377,say,30,say,C,[],37,Yes,I was not sure which questions were the attention checks that was mentioned with be present but I did my best to analyze each question honestly.,Male,English,Chrome,Windows,1080,1920,8.817766666666667,
2186,default,block2,tony,ai,1,14084,inform,32,inform,C,[],37,Yes,I was not sure which questions were the attention checks that was mentioned with be present but I did my best to analyze each question honestly.,Male,English,Chrome,Windows,1080,1920,8.817766666666667,
2186,default,block2,jackson,ai,1,6662,be_right,33,be_right,C,[],37,Yes,I was not sure which questions were the attention checks that was mentioned with be present but I did my best to analyze each question honestly.,Male,English,Chrome,Windows,1080,1920,8.817766666666667,
2186,default,block2,sophia,ai,0.79,7369,announce,34,announce,C,[],37,Yes,I was not sure which questions were the attention checks that was mentioned with be present but I did my best to analyze each question honestly.,Male,English,Chrome,Windows,1080,1920,8.817766666666667,
2186,default,block2,isabella,ai,0,8091,be_annoyed,35,be_annoyed,C,[],37,Yes,I was not sure which questions were the attention checks that was mentioned with be present but I did my best to analyze each question honestly.,Male,English,Chrome,Windows,1080,1920,8.817766666666667,
2186,default,block2,mary,ai,0.29,5701,confess,36,confess,C,[],37,Yes,I was not sure which questions were the attention checks that was mentioned with be present but I did my best to analyze each question honestly.,Male,English,Chrome,Windows,1080,1920,8.817766666666667,
2186,default,block2,josie,ai,0,7606,know,37,know,C,[],37,Yes,I was not sure which questions were the attention checks that was mentioned with be present but I did my best to analyze each question honestly.,Male,English,Chrome,Windows,1080,1920,8.817766666666667,
2186,default,block2,jayden,ai,1,4867,confirm,38,confirm,C,[],37,Yes,I was not sure which questions were the attention checks that was mentioned with be present but I did my best to analyze each question honestly.,Male,English,Chrome,Windows,1080,1920,8.817766666666667,
2186,default,block2,pizza,ai,1,13614,MC,39,MC,MC,[],37,Yes,I was not sure which questions were the attention checks that was mentioned with be present but I did my best to analyze each question honestly.,Male,English,Chrome,Windows,1080,1920,8.817766666666667,
2186,default,block2,emma,ai,0.61,7755,prove,40,prove,C,[],37,Yes,I was not sure which questions were the attention checks that was mentioned with be present but I did my best to analyze each question honestly.,Male,English,Chrome,Windows,1080,1920,8.817766666666667,
2186,default,block2,josh,ai,0,7059,admit,41,admit,C,[],37,Yes,I was not sure which questions were the attention checks that was mentioned with be present but I did my best to analyze each question honestly.,Male,English,Chrome,Windows,1080,1920,8.817766666666667,
2186,default,block2,frank,ai,1,4712,reveal,42,reveal,C,[],37,Yes,I was not sure which questions were the attention checks that was mentioned with be present but I did my best to analyze each question honestly.,Male,English,Chrome,Windows,1080,1920,8.817766666666667,
2186,default,block2,danny,ai,0.98,5511,discover,43,discover,C,[],37,Yes,I was not sure which questions were the attention checks that was mentioned with be present but I did my best to analyze each question honestly.,Male,English,Chrome,Windows,1080,1920,8.817766666666667,
2186,default,block2,olivia,ai,0,5829,pretend,44,pretend,C,[],37,Yes,I was not sure which questions were the attention checks that was mentioned with be present but I did my best to analyze each question honestly.,Male,English,Chrome,Windows,1080,1920,8.817766666666667,
2186,default,block2,charley,ai,1,3787,say,45,say,C,[],37,Yes,I was not sure which questions were the attention checks that was mentioned with be present but I did my best to analyze each question honestly.,Male,English,Chrome,Windows,1080,1920,8.817766666666667,
2186,default,block2,muffins,ai,0.72,6673,MC,46,MC,MC,[],37,Yes,I was not sure which questions were the attention checks that was mentioned with be present but I did my best to analyze each question honestly.,Male,English,Chrome,Windows,1080,1920,8.817766666666667,
2186,default,block2,kids,ai,0,5029,MC,47,MC,MC,[],37,Yes,I was not sure which questions were the attention checks that was mentioned with be present but I did my best to analyze each question honestly.,Male,English,Chrome,Windows,1080,1920,8.817766666666667,
2186,default,block2,zoe,ai,0,3837,demonstrate,48,demonstrate,C,[],37,Yes,I was not sure which questions were the attention checks that was mentioned with be present but I did my best to analyze each question honestly.,Male,English,Chrome,Windows,1080,1920,8.817766666666667,
2186,default,block2,emily,ai,1,4650,suggest,49,suggest,C,[],37,Yes,I was not sure which questions were the attention checks that was mentioned with be present but I did my best to analyze each question honestly.,Male,English,Chrome,Windows,1080,1920,8.817766666666667,
2186,default,block2,mia,ai,1,3239,hear,50,hear,C,[],37,Yes,I was not sure which questions were the attention checks that was mentioned with be present but I did my best to analyze each question honestly.,Male,English,Chrome,Windows,1080,1920,8.817766666666667,
2186,default,block2,jon,ai,1,5557,see,51,see,C,[],37,Yes,I was not sure which questions were the attention checks that was mentioned with be present but I did my best to analyze each question honestly.,Male,English,Chrome,Windows,1080,1920,8.817766666666667,
2186,default,block2,grace,ai,1,4235,think,52,think,C,[],37,Yes,I was not sure which questions were the attention checks that was mentioned with be present but I did my best to analyze each question honestly.,Male,English,Chrome,Windows,1080,1920,8.817766666666667,
2186,default,block2,garage,ai,0,5929,MC,53,MC,MC,[],37,Yes,I was not sure which questions were the attention checks that was mentioned with be present but I did my best to analyze each question honestly.,Male,English,Chrome,Windows,1080,1920,8.817766666666667,
2186,default,block2,hat,ai,0.77,6335,MC,54,MC,MC,[],37,Yes,I was not sure which questions were the attention checks that was mentioned with be present but I did my best to analyze each question honestly.,Male,English,Chrome,Windows,1080,1920,8.817766666666667,
2186,default,block2,ballet,ai,1,5651,MC,55,MC,MC,[],37,Yes,I was not sure which questions were the attention checks that was mentioned with be present but I did my best to analyze each question honestly.,Male,English,Chrome,Windows,1080,1920,8.817766666666667,
2186,default,block2,julian,ai,0.26,4562,establish,56,establish,C,[],37,Yes,I was not sure which questions were the attention checks that was mentioned with be present but I did my best to analyze each question honestly.,Male,English,Chrome,Windows,1080,1920,8.817766666666667,
2186,default,block2,owen,ai,1,4895,acknowledge,57,acknowledge,C,[],37,Yes,I was not sure which questions were the attention checks that was mentioned with be present but I did my best to analyze each question honestly.,Male,English,Chrome,Windows,1080,1920,8.817766666666667,
2018,default,block1,danny,projective,0.01,4494,pretend,5,pretend,C,[],38,Yes,,Female,English,Chrome,Linux,864,1536,8.263283333333334,
2018,default,block1,emily,projective,0.04,6349,demonstrate,6,demonstrate,C,[],38,Yes,,Female,English,Chrome,Linux,864,1536,8.263283333333334,
2018,default,block1,mary,projective,0.03,4126,say,7,say,C,[],38,Yes,,Female,English,Chrome,Linux,864,1536,8.263283333333334,
2018,default,block1,grace,projective,0.01,4100,think,8,think,C,[],38,Yes,,Female,English,Chrome,Linux,864,1536,8.263283333333334,
2018,default,block1,jayden,projective,0.01,3367,prove,9,prove,C,[],38,Yes,,Female,English,Chrome,Linux,864,1536,8.263283333333334,
2018,default,block1,julian,projective,0.25,10086,reveal,10,reveal,C,[],38,Yes,,Female,English,Chrome,Linux,864,1536,8.263283333333334,
2018,default,block1,zoe,projective,0.36,4321,confirm,11,confirm,C,[],38,Yes,,Female,English,Chrome,Linux,864,1536,8.263283333333334,
2018,default,block1,josie,projective,0.19,5184,establish,12,establish,C,[],38,Yes,,Female,English,Chrome,Linux,864,1536,8.263283333333334,
2018,default,block1,sophia,projective,0.44,5695,admit,13,admit,C,[],38,Yes,,Female,English,Chrome,Linux,864,1536,8.263283333333334,
2018,default,block1,olivia,projective,0.66,4125,know,14,know,C,[],38,Yes,,Female,English,Chrome,Linux,864,1536,8.263283333333334,
2018,default,block1,ballet,projective,0.94,3679,MC,15,MC,MC,[],38,Yes,,Female,English,Chrome,Linux,864,1536,8.263283333333334,
2018,default,block1,mia,projective,0.55,4634,discover,16,discover,C,[],38,Yes,,Female,English,Chrome,Linux,864,1536,8.263283333333334,
2018,default,block1,garage,projective,0.98,6133,MC,17,MC,MC,[],38,Yes,,Female,English,Chrome,Linux,864,1536,8.263283333333334,
2018,default,block1,frank,projective,0.75,10552,inform,18,inform,C,[],38,Yes,,Female,English,Chrome,Linux,864,1536,8.263283333333334,
2018,default,block1,charley,projective,0.86,6554,hear,19,hear,C,[],38,Yes,,Female,English,Chrome,Linux,864,1536,8.263283333333334,
2018,default,block1,josh,projective,0.01,8793,suggest,20,suggest,C,[],38,Yes,,Female,English,Chrome,Linux,864,1536,8.263283333333334,
2018,default,block1,hat,projective,0.98,5333,MC,21,MC,MC,[],38,Yes,,Female,English,Chrome,Linux,864,1536,8.263283333333334,
2018,default,block1,jackson,projective,0.02,4840,be_right,22,be_right,C,[],38,Yes,,Female,English,Chrome,Linux,864,1536,8.263283333333334,
2018,default,block1,owen,projective,0.94,18562,be_annoyed,23,be_annoyed,C,[],38,Yes,,Female,English,Chrome,Linux,864,1536,8.263283333333334,
2018,default,block1,jon,projective,0.96,12277,acknowledge,24,acknowledge,C,[],38,Yes,,Female,English,Chrome,Linux,864,1536,8.263283333333334,
2018,default,block1,isabella,projective,0.79,3537,confess,25,confess,C,[],38,Yes,,Female,English,Chrome,Linux,864,1536,8.263283333333334,
2018,default,block1,pizza,projective,0.97,23506,MC,26,MC,MC,[],38,Yes,,Female,English,Chrome,Linux,864,1536,8.263283333333334,
2018,default,block1,emma,projective,0.96,6242,see,27,see,C,[],38,Yes,,Female,English,Chrome,Linux,864,1536,8.263283333333334,
2018,default,block1,tony,projective,0.93,3028,announce,28,announce,C,[],38,Yes,,Female,English,Chrome,Linux,864,1536,8.263283333333334,
2018,default,block1,kids,projective,0.99,3215,MC,29,MC,MC,[],38,Yes,,Female,English,Chrome,Linux,864,1536,8.263283333333334,
2018,default,block1,muffins,projective,0.99,4288,MC,30,MC,MC,[],38,Yes,,Female,English,Chrome,Linux,864,1536,8.263283333333334,
2018,default,block2,kids,ai,0.89,6245,MC,32,MC,MC,[],38,Yes,,Female,English,Chrome,Linux,864,1536,8.263283333333334,
2018,default,block2,muffins,ai,0.8,5130,MC,33,MC,MC,[],38,Yes,,Female,English,Chrome,Linux,864,1536,8.263283333333334,
2018,default,block2,josie,ai,0.93,5274,establish,34,establish,C,[],38,Yes,,Female,English,Chrome,Linux,864,1536,8.263283333333334,
2018,default,block2,grace,ai,0.41,5529,think,35,think,C,[],38,Yes,,Female,English,Chrome,Linux,864,1536,8.263283333333334,
2018,default,block2,ballet,ai,0.74,7649,MC,36,MC,MC,[],38,Yes,,Female,English,Chrome,Linux,864,1536,8.263283333333334,
2018,default,block2,emma,ai,0.87,16670,see,37,see,C,[],38,Yes,,Female,English,Chrome,Linux,864,1536,8.263283333333334,
2018,default,block2,jon,ai,0.98,4942,acknowledge,38,acknowledge,C,[],38,Yes,,Female,English,Chrome,Linux,864,1536,8.263283333333334,
2018,default,block2,mia,ai,0.98,3433,discover,39,discover,C,[],38,Yes,,Female,English,Chrome,Linux,864,1536,8.263283333333334,
2018,default,block2,charley,ai,0.99,4540,hear,40,hear,C,[],38,Yes,,Female,English,Chrome,Linux,864,1536,8.263283333333334,
2018,default,block2,danny,ai,0.77,55397,pretend,41,pretend,C,[],38,Yes,,Female,English,Chrome,Linux,864,1536,8.263283333333334,
2018,default,block2,isabella,ai,0.9,11936,confess,42,confess,C,[],38,Yes,,Female,English,Chrome,Linux,864,1536,8.263283333333334,
2018,default,block2,zoe,ai,0.88,16218,confirm,43,confirm,C,[],38,Yes,,Female,English,Chrome,Linux,864,1536,8.263283333333334,
2018,default,block2,frank,ai,0.97,3462,inform,44,inform,C,[],38,Yes,,Female,English,Chrome,Linux,864,1536,8.263283333333334,
2018,default,block2,sophia,ai,0.98,3421,admit,45,admit,C,[],38,Yes,,Female,English,Chrome,Linux,864,1536,8.263283333333334,
2018,default,block2,olivia,ai,0.98,3147,know,46,know,C,[],38,Yes,,Female,English,Chrome,Linux,864,1536,8.263283333333334,
2018,default,block2,garage,ai,0.82,4935,MC,47,MC,MC,[],38,Yes,,Female,English,Chrome,Linux,864,1536,8.263283333333334,
2018,default,block2,emily,ai,0.87,5098,demonstrate,48,demonstrate,C,[],38,Yes,,Female,English,Chrome,Linux,864,1536,8.263283333333334,
2018,default,block2,owen,ai,0.73,6600,be_annoyed,49,be_annoyed,C,[],38,Yes,,Female,English,Chrome,Linux,864,1536,8.263283333333334,
2018,default,block2,hat,ai,0.92,12084,MC,50,MC,MC,[],38,Yes,,Female,English,Chrome,Linux,864,1536,8.263283333333334,
2018,default,block2,josh,ai,0.3,8627,suggest,51,suggest,C,[],38,Yes,,Female,English,Chrome,Linux,864,1536,8.263283333333334,
2018,default,block2,jackson,ai,0.87,69352,be_right,52,be_right,C,[],38,Yes,,Female,English,Chrome,Linux,864,1536,8.263283333333334,
2018,default,block2,mary,ai,1,4808,say,53,say,C,[],38,Yes,,Female,English,Chrome,Linux,864,1536,8.263283333333334,
2018,default,block2,jayden,ai,0.89,4328,prove,54,prove,C,[],38,Yes,,Female,English,Chrome,Linux,864,1536,8.263283333333334,
2018,default,block2,tony,ai,0.98,5129,announce,55,announce,C,[],38,Yes,,Female,English,Chrome,Linux,864,1536,8.263283333333334,
2018,default,block2,julian,ai,0.99,4004,reveal,56,reveal,C,[],38,Yes,,Female,English,Chrome,Linux,864,1536,8.263283333333334,
2018,default,block2,pizza,ai,0.29,9210,MC,57,MC,MC,[],38,Yes,,Female,English,Chrome,Linux,864,1536,8.263283333333334,
2026,default,block1,charley,ai,0.05,23624,acknowledge,5,acknowledge,C,[],25,Yes,,Female,English,Chrome,Mac,1120,1792,9.41405,
2026,default,block1,tony,ai,0.31,15362,suggest,6,suggest,C,[],25,Yes,,Female,English,Chrome,Mac,1120,1792,9.41405,
2026,default,block1,mia,ai,0.32,9361,confirm,7,confirm,C,[],25,Yes,,Female,English,Chrome,Mac,1120,1792,9.41405,
2026,default,block1,isabella,ai,0.19,18198,inform,8,inform,C,[],25,Yes,,Female,English,Chrome,Mac,1120,1792,9.41405,
2026,default,block1,pizza,ai,0.05,8115,MC,9,MC,MC,[],25,Yes,,Female,English,Chrome,Mac,1120,1792,9.41405,
2026,default,block1,mary,ai,0.21,5364,think,10,think,C,[],25,Yes,,Female,English,Chrome,Mac,1120,1792,9.41405,
2026,default,block1,olivia,ai,0.13,11039,pretend,11,pretend,C,[],25,Yes,,Female,English,Chrome,Mac,1120,1792,9.41405,
2026,default,block1,owen,ai,0.27,9469,admit,12,admit,C,[],25,Yes,,Female,English,Chrome,Mac,1120,1792,9.41405,
2026,default,block1,sophia,ai,0.2,4979,discover,13,discover,C,[],25,Yes,,Female,English,Chrome,Mac,1120,1792,9.41405,
2026,default,block1,ballet,ai,0.61,8355,MC,14,MC,MC,[],25,Yes,,Female,English,Chrome,Mac,1120,1792,9.41405,
2026,default,block1,emily,ai,0.19,6261,reveal,15,reveal,C,[],25,Yes,,Female,English,Chrome,Mac,1120,1792,9.41405,
2026,default,block1,kids,ai,0.61,7164,MC,16,MC,MC,[],25,Yes,,Female,English,Chrome,Mac,1120,1792,9.41405,
2026,default,block1,jackson,ai,0.3,6374,say,17,say,C,[],25,Yes,,Female,English,Chrome,Mac,1120,1792,9.41405,
2026,default,block1,frank,ai,0.65,7235,be_right,18,be_right,C,[],25,Yes,,Female,English,Chrome,Mac,1120,1792,9.41405,
2026,default,block1,muffins,ai,0.31,6287,MC,19,MC,MC,[],25,Yes,,Female,English,Chrome,Mac,1120,1792,9.41405,
2026,default,block1,jayden,ai,0.33,9000,hear,20,hear,C,[],25,Yes,,Female,English,Chrome,Mac,1120,1792,9.41405,
2026,default,block1,josh,ai,0.31,5650,know,21,know,C,[],25,Yes,,Female,English,Chrome,Mac,1120,1792,9.41405,
2026,default,block1,josie,ai,0.39,8991,establish,22,establish,C,[],25,Yes,,Female,English,Chrome,Mac,1120,1792,9.41405,
2026,default,block1,emma,ai,0.26,7507,announce,23,announce,C,[],25,Yes,,Female,English,Chrome,Mac,1120,1792,9.41405,
2026,default,block1,zoe,ai,0.32,80408,confess,24,confess,C,[],25,Yes,,Female,English,Chrome,Mac,1120,1792,9.41405,
2026,default,block1,jon,ai,0.27,4298,be_annoyed,25,be_annoyed,C,[],25,Yes,,Female,English,Chrome,Mac,1120,1792,9.41405,
2026,default,block1,hat,ai,0.66,6128,MC,26,MC,MC,[],25,Yes,,Female,English,Chrome,Mac,1120,1792,9.41405,
2026,default,block1,danny,ai,0.28,6404,see,27,see,C,[],25,Yes,,Female,English,Chrome,Mac,1120,1792,9.41405,
2026,default,block1,garage,ai,0.64,6660,MC,28,MC,MC,[],25,Yes,,Female,English,Chrome,Mac,1120,1792,9.41405,
2026,default,block1,julian,ai,0.6,8970,prove,29,prove,C,[],25,Yes,,Female,English,Chrome,Mac,1120,1792,9.41405,
2026,default,block1,grace,ai,0.61,10038,demonstrate,30,demonstrate,C,[],25,Yes,,Female,English,Chrome,Mac,1120,1792,9.41405,
2026,default,block2,emma,projective,0.09,20332,announce,32,announce,C,[],25,Yes,,Female,English,Chrome,Mac,1120,1792,9.41405,
2026,default,block2,muffins,projective,0.98,5642,MC,33,MC,MC,[],25,Yes,,Female,English,Chrome,Mac,1120,1792,9.41405,
2026,default,block2,jackson,projective,0.07,6782,say,34,say,C,[],25,Yes,,Female,English,Chrome,Mac,1120,1792,9.41405,
2026,default,block2,pizza,projective,0.95,3399,MC,35,MC,MC,[],25,Yes,,Female,English,Chrome,Mac,1120,1792,9.41405,
2026,default,block2,jayden,projective,0.05,5462,hear,36,hear,C,[],25,Yes,,Female,English,Chrome,Mac,1120,1792,9.41405,
2026,default,block2,charley,projective,0.07,4408,acknowledge,37,acknowledge,C,[],25,Yes,,Female,English,Chrome,Mac,1120,1792,9.41405,
2026,default,block2,garage,projective,0.96,4231,MC,38,MC,MC,[],25,Yes,,Female,English,Chrome,Mac,1120,1792,9.41405,
2026,default,block2,zoe,projective,0.11,4297,confess,39,confess,C,[],25,Yes,,Female,English,Chrome,Mac,1120,1792,9.41405,
2026,default,block2,frank,projective,0.3,8021,be_right,40,be_right,C,[],25,Yes,,Female,English,Chrome,Mac,1120,1792,9.41405,
2026,default,block2,owen,projective,0.34,10636,admit,41,admit,C,[],25,Yes,,Female,English,Chrome,Mac,1120,1792,9.41405,
2026,default,block2,julian,projective,0.35,5739,prove,42,prove,C,[],25,Yes,,Female,English,Chrome,Mac,1120,1792,9.41405,
2026,default,block2,josh,projective,0.38,5791,know,43,know,C,[],25,Yes,,Female,English,Chrome,Mac,1120,1792,9.41405,
2026,default,block2,olivia,projective,0.21,7421,pretend,44,pretend,C,[],25,Yes,,Female,English,Chrome,Mac,1120,1792,9.41405,
2026,default,block2,mary,projective,0.06,6081,think,45,think,C,[],25,Yes,,Female,English,Chrome,Mac,1120,1792,9.41405,
2026,default,block2,ballet,projective,0.95,4269,MC,46,MC,MC,[],25,Yes,,Female,English,Chrome,Mac,1120,1792,9.41405,
2026,default,block2,josie,projective,0.17,7338,establish,47,establish,C,[],25,Yes,,Female,English,Chrome,Mac,1120,1792,9.41405,
2026,default,block2,emily,projective,0.18,7226,reveal,48,reveal,C,[],25,Yes,,Female,English,Chrome,Mac,1120,1792,9.41405,
2026,default,block2,grace,projective,0.22,5231,demonstrate,49,demonstrate,C,[],25,Yes,,Female,English,Chrome,Mac,1120,1792,9.41405,
2026,default,block2,tony,projective,0.19,3548,suggest,50,suggest,C,[],25,Yes,,Female,English,Chrome,Mac,1120,1792,9.41405,
2026,default,block2,mia,projective,0.18,3508,confirm,51,confirm,C,[],25,Yes,,Female,English,Chrome,Mac,1120,1792,9.41405,
2026,default,block2,jon,projective,0.65,16889,be_annoyed,52,be_annoyed,C,[],25,Yes,,Female,English,Chrome,Mac,1120,1792,9.41405,
2026,default,block2,sophia,projective,0.39,6156,discover,53,discover,C,[],25,Yes,,Female,English,Chrome,Mac,1120,1792,9.41405,
2026,default,block2,danny,projective,0.41,9163,see,54,see,C,[],25,Yes,,Female,English,Chrome,Mac,1120,1792,9.41405,
2026,default,block2,isabella,projective,0.35,9113,inform,55,inform,C,[],25,Yes,,Female,English,Chrome,Mac,1120,1792,9.41405,
2026,default,block2,kids,projective,0.98,6287,MC,56,MC,MC,[],25,Yes,,Female,English,Chrome,Mac,1120,1792,9.41405,
2026,default,block2,hat,projective,0.96,3371,MC,57,MC,MC,[],25,Yes,,Female,English,Chrome,Mac,1120,1792,9.41405,
2021,default,block1,emma,projective,0.67,13751,hear,5,hear,C,[],56,Yes,,Female,English,Chrome,Windows,768,1366,5.994866666666667,
2021,default,block1,josh,projective,0.97,6767,discover,6,discover,C,[],56,Yes,,Female,English,Chrome,Windows,768,1366,5.994866666666667,
2021,default,block1,mary,projective,0.34,5895,say,7,say,C,[],56,Yes,,Female,English,Chrome,Windows,768,1366,5.994866666666667,
2021,default,block1,isabella,projective,0.97,7647,see,8,see,C,[],56,Yes,,Female,English,Chrome,Windows,768,1366,5.994866666666667,
2021,default,block1,josie,projective,0.33,7375,think,9,think,C,[],56,Yes,,Female,English,Chrome,Windows,768,1366,5.994866666666667,
2021,default,block1,frank,projective,0.96,4807,know,10,know,C,[],56,Yes,,Female,English,Chrome,Windows,768,1366,5.994866666666667,
2021,default,block1,danny,projective,0.98,6192,confess,11,confess,C,[],56,Yes,,Female,English,Chrome,Windows,768,1366,5.994866666666667,
2021,default,block1,garage,projective,0.98,6560,MC,12,MC,MC,[],56,Yes,,Female,English,Chrome,Windows,768,1366,5.994866666666667,
2021,default,block1,pizza,projective,0.98,5248,MC,13,MC,MC,[],56,Yes,,Female,English,Chrome,Windows,768,1366,5.994866666666667,
2021,default,block1,grace,projective,0.7,7548,acknowledge,14,acknowledge,C,[],56,Yes,,Female,English,Chrome,Windows,768,1366,5.994866666666667,
2021,default,block1,muffins,projective,0.99,3243,MC,15,MC,MC,[],56,Yes,,Female,English,Chrome,Windows,768,1366,5.994866666666667,
2021,default,block1,olivia,projective,0.27,7176,confirm,16,confirm,C,[],56,Yes,,Female,English,Chrome,Windows,768,1366,5.994866666666667,
2021,default,block1,jon,projective,0.49,4535,reveal,17,reveal,C,[],56,Yes,,Female,English,Chrome,Windows,768,1366,5.994866666666667,
2021,default,block1,owen,projective,0.21,5264,demonstrate,18,demonstrate,C,[],56,Yes,,Female,English,Chrome,Windows,768,1366,5.994866666666667,
2021,default,block1,hat,projective,0.98,4784,MC,19,MC,MC,[],56,Yes,,Female,English,Chrome,Windows,768,1366,5.994866666666667,
2021,default,block1,mia,projective,0.35,8121,announce,20,announce,C,[],56,Yes,,Female,English,Chrome,Windows,768,1366,5.994866666666667,
2021,default,block1,zoe,projective,0.57,8031,establish,21,establish,C,[],56,Yes,,Female,English,Chrome,Windows,768,1366,5.994866666666667,
2021,default,block1,tony,projective,0.62,5352,be_annoyed,22,be_annoyed,C,[],56,Yes,,Female,English,Chrome,Windows,768,1366,5.994866666666667,
2021,default,block1,charley,projective,0.21,5760,be_right,23,be_right,C,[],56,Yes,,Female,English,Chrome,Windows,768,1366,5.994866666666667,
2021,default,block1,ballet,projective,0.98,3212,MC,24,MC,MC,[],56,Yes,,Female,English,Chrome,Windows,768,1366,5.994866666666667,
2021,default,block1,jackson,projective,0.37,10340,pretend,25,pretend,C,[],56,Yes,,Female,English,Chrome,Windows,768,1366,5.994866666666667,
2021,default,block1,kids,projective,0.98,5604,MC,26,MC,MC,[],56,Yes,,Female,English,Chrome,Windows,768,1366,5.994866666666667,
2021,default,block1,julian,projective,0.3,5620,admit,27,admit,C,[],56,Yes,,Female,English,Chrome,Windows,768,1366,5.994866666666667,
2021,default,block1,sophia,projective,0.29,6448,inform,28,inform,C,[],56,Yes,,Female,English,Chrome,Windows,768,1366,5.994866666666667,
2021,default,block1,jayden,projective,0.37,5412,suggest,29,suggest,C,[],56,Yes,,Female,English,Chrome,Windows,768,1366,5.994866666666667,
2021,default,block1,emily,projective,0.49,7452,prove,30,prove,C,[],56,Yes,,Female,English,Chrome,Windows,768,1366,5.994866666666667,
2021,default,block2,olivia,ai,0.4,8703,confirm,32,confirm,C,[],56,Yes,,Female,English,Chrome,Windows,768,1366,5.994866666666667,
2021,default,block2,sophia,ai,0.25,7512,inform,33,inform,C,[],56,Yes,,Female,English,Chrome,Windows,768,1366,5.994866666666667,
2021,default,block2,owen,ai,0.02,6696,demonstrate,34,demonstrate,C,[],56,Yes,,Female,English,Chrome,Windows,768,1366,5.994866666666667,
2021,default,block2,danny,ai,0.02,7008,confess,35,confess,C,[],56,Yes,,Female,English,Chrome,Windows,768,1366,5.994866666666667,
2021,default,block2,pizza,ai,0.96,6095,MC,36,MC,MC,[],56,Yes,,Female,English,Chrome,Windows,768,1366,5.994866666666667,
2021,default,block2,isabella,ai,0.03,5472,see,37,see,C,[],56,Yes,,Female,English,Chrome,Windows,768,1366,5.994866666666667,
2021,default,block2,emily,ai,0.02,4168,prove,38,prove,C,[],56,Yes,,Female,English,Chrome,Windows,768,1366,5.994866666666667,
2021,default,block2,jackson,ai,0.01,4305,pretend,39,pretend,C,[],56,Yes,,Female,English,Chrome,Windows,768,1366,5.994866666666667,
2021,default,block2,frank,ai,0.01,3616,know,40,know,C,[],56,Yes,,Female,English,Chrome,Windows,768,1366,5.994866666666667,
2021,default,block2,garage,ai,0.96,6089,MC,41,MC,MC,[],56,Yes,,Female,English,Chrome,Windows,768,1366,5.994866666666667,
2021,default,block2,josie,ai,0.09,4926,think,42,think,C,[],56,Yes,,Female,English,Chrome,Windows,768,1366,5.994866666666667,
2021,default,block2,tony,ai,0.4,7369,be_annoyed,43,be_annoyed,C,[],56,Yes,,Female,English,Chrome,Windows,768,1366,5.994866666666667,
2021,default,block2,zoe,ai,0.03,6223,establish,44,establish,C,[],56,Yes,,Female,English,Chrome,Windows,768,1366,5.994866666666667,
2021,default,block2,hat,ai,0.97,2692,MC,45,MC,MC,[],56,Yes,,Female,English,Chrome,Windows,768,1366,5.994866666666667,
2021,default,block2,josh,ai,0.22,7900,discover,46,discover,C,[],56,Yes,,Female,English,Chrome,Windows,768,1366,5.994866666666667,
2021,default,block2,kids,ai,0.96,3872,MC,47,MC,MC,[],56,Yes,,Female,English,Chrome,Windows,768,1366,5.994866666666667,
2021,default,block2,mia,ai,0.31,4638,announce,48,announce,C,[],56,Yes,,Female,English,Chrome,Windows,768,1366,5.994866666666667,
2021,default,block2,ballet,ai,0.99,4169,MC,49,MC,MC,[],56,Yes,,Female,English,Chrome,Windows,768,1366,5.994866666666667,
2021,default,block2,muffins,ai,0.97,3368,MC,50,MC,MC,[],56,Yes,,Female,English,Chrome,Windows,768,1366,5.994866666666667,
2021,default,block2,charley,ai,0.65,5456,be_right,51,be_right,C,[],56,Yes,,Female,English,Chrome,Windows,768,1366,5.994866666666667,
2021,default,block2,grace,ai,0.09,4832,acknowledge,52,acknowledge,C,[],56,Yes,,Female,English,Chrome,Windows,768,1366,5.994866666666667,
2021,default,block2,jayden,ai,0.18,2976,suggest,53,suggest,C,[],56,Yes,,Female,English,Chrome,Windows,768,1366,5.994866666666667,
2021,default,block2,jon,ai,0.13,3856,reveal,54,reveal,C,[],56,Yes,,Female,English,Chrome,Windows,768,1366,5.994866666666667,
2021,default,block2,julian,ai,0.08,10312,admit,55,admit,C,[],56,Yes,,Female,English,Chrome,Windows,768,1366,5.994866666666667,
2021,default,block2,emma,ai,0.25,4940,hear,56,hear,C,[],56,Yes,,Female,English,Chrome,Windows,768,1366,5.994866666666667,
2021,default,block2,mary,ai,0.17,3540,say,57,say,C,[],56,Yes,,Female,English,Chrome,Windows,768,1366,5.994866666666667,
2243,default,block1,josh,ai,0.43,10776,see,5,see,C,[],25,Yes,,Female,English,Safari,Mac,1050,1680,5.369083333333333,
2243,default,block1,frank,ai,0.4,5017,establish,6,establish,C,[],25,Yes,,Female,English,Safari,Mac,1050,1680,5.369083333333333,
2243,default,block1,muffins,ai,0.61,5196,MC,7,MC,MC,[],25,Yes,,Female,English,Safari,Mac,1050,1680,5.369083333333333,
2243,default,block1,hat,ai,0.98,5422,MC,8,MC,MC,[],25,Yes,,Female,English,Safari,Mac,1050,1680,5.369083333333333,
2243,default,block1,garage,ai,0.99,3981,MC,9,MC,MC,[],25,Yes,,Female,English,Safari,Mac,1050,1680,5.369083333333333,
2243,default,block1,jayden,ai,0.53,9318,demonstrate,10,demonstrate,C,[],25,Yes,,Female,English,Safari,Mac,1050,1680,5.369083333333333,
2243,default,block1,grace,ai,0.58,4853,confirm,11,confirm,C,[],25,Yes,,Female,English,Safari,Mac,1050,1680,5.369083333333333,
2243,default,block1,tony,ai,0.42,5699,suggest,12,suggest,C,[],25,Yes,,Female,English,Safari,Mac,1050,1680,5.369083333333333,
2243,default,block1,kids,ai,0.99,5158,MC,13,MC,MC,[],25,Yes,,Female,English,Safari,Mac,1050,1680,5.369083333333333,
2243,default,block1,olivia,ai,0.12,5891,pretend,14,pretend,C,[],25,Yes,,Female,English,Safari,Mac,1050,1680,5.369083333333333,
2243,default,block1,mary,ai,0.27,4236,say,15,say,C,[],25,Yes,,Female,English,Safari,Mac,1050,1680,5.369083333333333,
2243,default,block1,charley,ai,0.46,6264,announce,16,announce,C,[],25,Yes,,Female,English,Safari,Mac,1050,1680,5.369083333333333,
2243,default,block1,zoe,ai,0.42,6433,confess,17,confess,C,[],25,Yes,,Female,English,Safari,Mac,1050,1680,5.369083333333333,
2243,default,block1,julian,ai,0.45,3493,reveal,18,reveal,C,[],25,Yes,,Female,English,Safari,Mac,1050,1680,5.369083333333333,
2243,default,block1,ballet,ai,0.96,3782,MC,19,MC,MC,[],25,Yes,,Female,English,Safari,Mac,1050,1680,5.369083333333333,
2243,default,block1,emily,ai,0.46,5581,acknowledge,20,acknowledge,C,[],25,Yes,,Female,English,Safari,Mac,1050,1680,5.369083333333333,
2243,default,block1,josie,ai,0.35,5302,think,21,think,C,[],25,Yes,,Female,English,Safari,Mac,1050,1680,5.369083333333333,
2243,default,block1,pizza,ai,0.97,4322,MC,22,MC,MC,[],25,Yes,,Female,English,Safari,Mac,1050,1680,5.369083333333333,
2243,default,block1,owen,ai,0.52,7161,know,23,know,C,[],25,Yes,,Female,English,Safari,Mac,1050,1680,5.369083333333333,
2243,default,block1,jon,ai,0.45,6825,hear,24,hear,C,[],25,Yes,,Female,English,Safari,Mac,1050,1680,5.369083333333333,
2243,default,block1,isabella,ai,0.34,4556,discover,25,discover,C,[],25,Yes,,Female,English,Safari,Mac,1050,1680,5.369083333333333,
2243,default,block1,danny,ai,0.39,10971,inform,26,inform,C,[],25,Yes,,Female,English,Safari,Mac,1050,1680,5.369083333333333,
2243,default,block1,sophia,ai,0.38,3726,be_annoyed,27,be_annoyed,C,[],25,Yes,,Female,English,Safari,Mac,1050,1680,5.369083333333333,
2243,default,block1,emma,ai,0.38,3060,prove,28,prove,C,[],25,Yes,,Female,English,Safari,Mac,1050,1680,5.369083333333333,
2243,default,block1,mia,ai,0.46,7204,admit,29,admit,C,[],25,Yes,,Female,English,Safari,Mac,1050,1680,5.369083333333333,
2243,default,block1,jackson,ai,0.91,5976,be_right,30,be_right,C,[],25,Yes,,Female,English,Safari,Mac,1050,1680,5.369083333333333,
2243,default,block2,emily,projective,0.96,5143,acknowledge,32,acknowledge,C,[],25,Yes,,Female,English,Safari,Mac,1050,1680,5.369083333333333,
2243,default,block2,danny,projective,0.69,9443,inform,33,inform,C,[],25,Yes,,Female,English,Safari,Mac,1050,1680,5.369083333333333,
2243,default,block2,josie,projective,0.11,4746,think,34,think,C,[],25,Yes,,Female,English,Safari,Mac,1050,1680,5.369083333333333,
2243,default,block2,tony,projective,0.12,4447,suggest,35,suggest,C,[],25,Yes,,Female,English,Safari,Mac,1050,1680,5.369083333333333,
2243,default,block2,jackson,projective,0.49,5261,be_right,36,be_right,C,[],25,Yes,,Female,English,Safari,Mac,1050,1680,5.369083333333333,
2243,default,block2,olivia,projective,0.16,4858,pretend,37,pretend,C,[],25,Yes,,Female,English,Safari,Mac,1050,1680,5.369083333333333,
2243,default,block2,kids,projective,0.98,4787,MC,38,MC,MC,[],25,Yes,,Female,English,Safari,Mac,1050,1680,5.369083333333333,
2243,default,block2,ballet,projective,0.96,3017,MC,39,MC,MC,[],25,Yes,,Female,English,Safari,Mac,1050,1680,5.369083333333333,
2243,default,block2,jayden,projective,0.28,6039,demonstrate,40,demonstrate,C,[],25,Yes,,Female,English,Safari,Mac,1050,1680,5.369083333333333,
2243,default,block2,garage,projective,0.97,2159,MC,41,MC,MC,[],25,Yes,,Female,English,Safari,Mac,1050,1680,5.369083333333333,
2243,default,block2,muffins,projective,0.97,2455,MC,42,MC,MC,[],25,Yes,,Female,English,Safari,Mac,1050,1680,5.369083333333333,
2243,default,block2,owen,projective,0.84,2748,know,43,know,C,[],25,Yes,,Female,English,Safari,Mac,1050,1680,5.369083333333333,
2243,default,block2,zoe,projective,0.68,5805,confess,44,confess,C,[],25,Yes,,Female,English,Safari,Mac,1050,1680,5.369083333333333,
2243,default,block2,julian,projective,0.76,2714,reveal,45,reveal,C,[],25,Yes,,Female,English,Safari,Mac,1050,1680,5.369083333333333,
2243,default,block2,hat,projective,0.97,2250,MC,46,MC,MC,[],25,Yes,,Female,English,Safari,Mac,1050,1680,5.369083333333333,
2243,default,block2,mary,projective,0.25,3536,say,47,say,C,[],25,Yes,,Female,English,Safari,Mac,1050,1680,5.369083333333333,
2243,default,block2,grace,projective,0.48,5848,confirm,48,confirm,C,[],25,Yes,,Female,English,Safari,Mac,1050,1680,5.369083333333333,
2243,default,block2,mia,projective,0.45,6260,admit,49,admit,C,[],25,Yes,,Female,English,Safari,Mac,1050,1680,5.369083333333333,
2243,default,block2,josh,projective,0.51,5949,see,50,see,C,[],25,Yes,,Female,English,Safari,Mac,1050,1680,5.369083333333333,
2243,default,block2,charley,projective,0.31,2870,announce,51,announce,C,[],25,Yes,,Female,English,Safari,Mac,1050,1680,5.369083333333333,
2243,default,block2,pizza,projective,0.95,2288,MC,52,MC,MC,[],25,Yes,,Female,English,Safari,Mac,1050,1680,5.369083333333333,
2243,default,block2,sophia,projective,0.48,3976,be_annoyed,53,be_annoyed,C,[],25,Yes,,Female,English,Safari,Mac,1050,1680,5.369083333333333,
2243,default,block2,emma,projective,0.54,14385,prove,54,prove,C,[],25,Yes,,Female,English,Safari,Mac,1050,1680,5.369083333333333,
2243,default,block2,isabella,projective,0.45,4136,discover,55,discover,C,[],25,Yes,,Female,English,Safari,Mac,1050,1680,5.369083333333333,
2243,default,block2,jon,projective,0.4,2404,hear,56,hear,C,[],25,Yes,,Female,English,Safari,Mac,1050,1680,5.369083333333333,
2243,default,block2,frank,projective,0.39,2910,establish,57,establish,C,[],25,Yes,,Female,English,Safari,Mac,1050,1680,5.369083333333333,
2047,default,block1,josie,ai,0.28,11250,inform,5,inform,C,[],21,Yes,,Male,English,Chrome,Windows,1080,1920,7.758766666666666,
2047,default,block1,frank,ai,0.35,9403,prove,6,prove,C,[],21,Yes,,Male,English,Chrome,Windows,1080,1920,7.758766666666666,
2047,default,block1,jackson,ai,0.24,7465,know,7,know,C,[],21,Yes,,Male,English,Chrome,Windows,1080,1920,7.758766666666666,
2047,default,block1,mary,ai,0.33,21655,hear,8,hear,C,[],21,Yes,,Male,English,Chrome,Windows,1080,1920,7.758766666666666,
2047,default,block1,josh,ai,0.34,16428,be_annoyed,9,be_annoyed,C,[],21,Yes,,Male,English,Chrome,Windows,1080,1920,7.758766666666666,
2047,default,block1,sophia,ai,0.32,11094,think,10,think,C,[],21,Yes,,Male,English,Chrome,Windows,1080,1920,7.758766666666666,
2047,default,block1,jon,ai,0.35,5344,discover,11,discover,C,[],21,Yes,,Male,English,Chrome,Windows,1080,1920,7.758766666666666,
2047,default,block1,ballet,ai,0.5,7061,MC,12,MC,MC,[],21,Yes,,Male,English,Chrome,Windows,1080,1920,7.758766666666666,
2047,default,block1,muffins,ai,0.23,3395,MC,13,MC,MC,[],21,Yes,,Male,English,Chrome,Windows,1080,1920,7.758766666666666,
2047,default,block1,emily,ai,0.24,5368,suggest,14,suggest,C,[],21,Yes,,Male,English,Chrome,Windows,1080,1920,7.758766666666666,
2047,default,block1,emma,ai,0.31,3107,announce,15,announce,C,[],21,Yes,,Male,English,Chrome,Windows,1080,1920,7.758766666666666,
2047,default,block1,owen,ai,0.26,3710,be_right,16,be_right,C,[],21,Yes,,Male,English,Chrome,Windows,1080,1920,7.758766666666666,
2047,default,block1,kids,ai,0.39,6234,MC,17,MC,MC,[],21,Yes,,Male,English,Chrome,Windows,1080,1920,7.758766666666666,
2047,default,block1,isabella,ai,0.31,20696,say,18,say,C,[],21,Yes,,Male,English,Chrome,Windows,1080,1920,7.758766666666666,
2047,default,block1,olivia,ai,0.26,21050,establish,19,establish,C,[],21,Yes,,Male,English,Chrome,Windows,1080,1920,7.758766666666666,
2047,default,block1,mia,ai,0.2,7026,confirm,20,confirm,C,[],21,Yes,,Male,English,Chrome,Windows,1080,1920,7.758766666666666,
2047,default,block1,hat,ai,0.4,11027,MC,21,MC,MC,[],21,Yes,,Male,English,Chrome,Windows,1080,1920,7.758766666666666,
2047,default,block1,charley,ai,0.4,5440,admit,22,admit,C,[],21,Yes,,Male,English,Chrome,Windows,1080,1920,7.758766666666666,
2047,default,block1,grace,ai,0.32,3432,acknowledge,23,acknowledge,C,[],21,Yes,,Male,English,Chrome,Windows,1080,1920,7.758766666666666,
2047,default,block1,julian,ai,0.45,3800,reveal,24,reveal,C,[],21,Yes,,Male,English,Chrome,Windows,1080,1920,7.758766666666666,
2047,default,block1,pizza,ai,0.52,4044,MC,25,MC,MC,[],21,Yes,,Male,English,Chrome,Windows,1080,1920,7.758766666666666,
2047,default,block1,danny,ai,0.39,10540,confess,26,confess,C,[],21,Yes,,Male,English,Chrome,Windows,1080,1920,7.758766666666666,
2047,default,block1,zoe,ai,0.42,8654,demonstrate,27,demonstrate,C,[],21,Yes,,Male,English,Chrome,Windows,1080,1920,7.758766666666666,
2047,default,block1,tony,ai,0.44,6580,see,28,see,C,[],21,Yes,,Male,English,Chrome,Windows,1080,1920,7.758766666666666,
2047,default,block1,garage,ai,0.46,4903,MC,29,MC,MC,[],21,Yes,,Male,English,Chrome,Windows,1080,1920,7.758766666666666,
2047,default,block1,jayden,ai,0.42,19757,pretend,30,pretend,C,[],21,Yes,,Male,English,Chrome,Windows,1080,1920,7.758766666666666,
2047,default,block2,kids,projective,1,10090,MC,32,MC,MC,[],21,Yes,,Male,English,Chrome,Windows,1080,1920,7.758766666666666,
2047,default,block2,mary,projective,0.51,4423,hear,33,hear,C,[],21,Yes,,Male,English,Chrome,Windows,1080,1920,7.758766666666666,
2047,default,block2,charley,projective,0.54,2286,admit,34,admit,C,[],21,Yes,,Male,English,Chrome,Windows,1080,1920,7.758766666666666,
2047,default,block2,julian,projective,0.58,13282,reveal,35,reveal,C,[],21,Yes,,Male,English,Chrome,Windows,1080,1920,7.758766666666666,
2047,default,block2,owen,projective,0.57,2436,be_right,36,be_right,C,[],21,Yes,,Male,English,Chrome,Windows,1080,1920,7.758766666666666,
2047,default,block2,josh,projective,0.54,7606,be_annoyed,37,be_annoyed,C,[],21,Yes,,Male,English,Chrome,Windows,1080,1920,7.758766666666666,
2047,default,block2,olivia,projective,0.42,3917,establish,38,establish,C,[],21,Yes,,Male,English,Chrome,Windows,1080,1920,7.758766666666666,
2047,default,block2,grace,projective,0.39,6217,acknowledge,39,acknowledge,C,[],21,Yes,,Male,English,Chrome,Windows,1080,1920,7.758766666666666,
2047,default,block2,sophia,projective,0.57,7196,think,40,think,C,[],21,Yes,,Male,English,Chrome,Windows,1080,1920,7.758766666666666,
2047,default,block2,jon,projective,0.73,15631,discover,41,discover,C,[],21,Yes,,Male,English,Chrome,Windows,1080,1920,7.758766666666666,
2047,default,block2,mia,projective,0.45,5623,confirm,42,confirm,C,[],21,Yes,,Male,English,Chrome,Windows,1080,1920,7.758766666666666,
2047,default,block2,isabella,projective,0.42,10016,say,43,say,C,[],21,Yes,,Male,English,Chrome,Windows,1080,1920,7.758766666666666,
2047,default,block2,ballet,projective,1,3304,MC,44,MC,MC,[],21,Yes,,Male,English,Chrome,Windows,1080,1920,7.758766666666666,
2047,default,block2,danny,projective,0.47,4348,confess,45,confess,C,[],21,Yes,,Male,English,Chrome,Windows,1080,1920,7.758766666666666,
2047,default,block2,emily,projective,0.37,17007,suggest,46,suggest,C,[],21,Yes,,Male,English,Chrome,Windows,1080,1920,7.758766666666666,
2047,default,block2,zoe,projective,0.44,12114,demonstrate,47,demonstrate,C,[],21,Yes,,Male,English,Chrome,Windows,1080,1920,7.758766666666666,
2047,default,block2,hat,projective,1,13196,MC,48,MC,MC,[],21,Yes,,Male,English,Chrome,Windows,1080,1920,7.758766666666666,
2047,default,block2,tony,projective,0.49,2232,see,49,see,C,[],21,Yes,,Male,English,Chrome,Windows,1080,1920,7.758766666666666,
2047,default,block2,josie,projective,0.46,2360,inform,50,inform,C,[],21,Yes,,Male,English,Chrome,Windows,1080,1920,7.758766666666666,
2047,default,block2,pizza,projective,1,3088,MC,51,MC,MC,[],21,Yes,,Male,English,Chrome,Windows,1080,1920,7.758766666666666,
2047,default,block2,emma,projective,0.56,3252,announce,52,announce,C,[],21,Yes,,Male,English,Chrome,Windows,1080,1920,7.758766666666666,
2047,default,block2,garage,projective,1,12507,MC,53,MC,MC,[],21,Yes,,Male,English,Chrome,Windows,1080,1920,7.758766666666666,
2047,default,block2,muffins,projective,1,4545,MC,54,MC,MC,[],21,Yes,,Male,English,Chrome,Windows,1080,1920,7.758766666666666,
2047,default,block2,jayden,projective,0.5,7039,pretend,55,pretend,C,[],21,Yes,,Male,English,Chrome,Windows,1080,1920,7.758766666666666,
2047,default,block2,frank,projective,0.44,2963,prove,56,prove,C,[],21,Yes,,Male,English,Chrome,Windows,1080,1920,7.758766666666666,
2047,default,block2,jackson,projective,0.9,6529,know,57,know,C,[],21,Yes,,Male,English,Chrome,Windows,1080,1920,7.758766666666666,
2082,default,block1,tony,projective,0.87,11074,be_annoyed,5,be_annoyed,C,[],24,Yes,I wasn't sure exactly what it meant when it asked if a sentence sounded good? I based it on if the sentence answered the question.,Female,English,Chrome,Windows,768,1366,8.972166666666666,
2082,default,block1,pizza,projective,0.97,8279,MC,6,MC,MC,[],24,Yes,I wasn't sure exactly what it meant when it asked if a sentence sounded good? I based it on if the sentence answered the question.,Female,English,Chrome,Windows,768,1366,8.972166666666666,
2082,default,block1,emily,projective,0.5,14255,establish,7,establish,C,[],24,Yes,I wasn't sure exactly what it meant when it asked if a sentence sounded good? I based it on if the sentence answered the question.,Female,English,Chrome,Windows,768,1366,8.972166666666666,
2082,default,block1,ballet,projective,0.96,5742,MC,8,MC,MC,[],24,Yes,I wasn't sure exactly what it meant when it asked if a sentence sounded good? I based it on if the sentence answered the question.,Female,English,Chrome,Windows,768,1366,8.972166666666666,
2082,default,block1,emma,projective,0.89,7506,know,9,know,C,[],24,Yes,I wasn't sure exactly what it meant when it asked if a sentence sounded good? I based it on if the sentence answered the question.,Female,English,Chrome,Windows,768,1366,8.972166666666666,
2082,default,block1,garage,projective,0.94,7793,MC,10,MC,MC,[],24,Yes,I wasn't sure exactly what it meant when it asked if a sentence sounded good? I based it on if the sentence answered the question.,Female,English,Chrome,Windows,768,1366,8.972166666666666,
2082,default,block1,jackson,projective,0.14,8632,pretend,11,pretend,C,[],24,Yes,I wasn't sure exactly what it meant when it asked if a sentence sounded good? I based it on if the sentence answered the question.,Female,English,Chrome,Windows,768,1366,8.972166666666666,
2082,default,block1,isabella,projective,0.12,8008,prove,12,prove,C,[],24,Yes,I wasn't sure exactly what it meant when it asked if a sentence sounded good? I based it on if the sentence answered the question.,Female,English,Chrome,Windows,768,1366,8.972166666666666,
2082,default,block1,jon,projective,0.11,6308,think,13,think,C,[],24,Yes,I wasn't sure exactly what it meant when it asked if a sentence sounded good? I based it on if the sentence answered the question.,Female,English,Chrome,Windows,768,1366,8.972166666666666,
2082,default,block1,olivia,projective,0.37,9684,acknowledge,14,acknowledge,C,[],24,Yes,I wasn't sure exactly what it meant when it asked if a sentence sounded good? I based it on if the sentence answered the question.,Female,English,Chrome,Windows,768,1366,8.972166666666666,
2082,default,block1,owen,projective,0.62,8395,see,15,see,C,[],24,Yes,I wasn't sure exactly what it meant when it asked if a sentence sounded good? I based it on if the sentence answered the question.,Female,English,Chrome,Windows,768,1366,8.972166666666666,
2082,default,block1,hat,projective,0.81,6035,MC,16,MC,MC,[],24,Yes,I wasn't sure exactly what it meant when it asked if a sentence sounded good? I based it on if the sentence answered the question.,Female,English,Chrome,Windows,768,1366,8.972166666666666,
2082,default,block1,grace,projective,0.09,5126,be_right,17,be_right,C,[],24,Yes,I wasn't sure exactly what it meant when it asked if a sentence sounded good? I based it on if the sentence answered the question.,Female,English,Chrome,Windows,768,1366,8.972166666666666,
2082,default,block1,mia,projective,0.76,15292,inform,18,inform,C,[],24,Yes,I wasn't sure exactly what it meant when it asked if a sentence sounded good? I based it on if the sentence answered the question.,Female,English,Chrome,Windows,768,1366,8.972166666666666,
2082,default,block1,josh,projective,0.65,8266,hear,19,hear,C,[],24,Yes,I wasn't sure exactly what it meant when it asked if a sentence sounded good? I based it on if the sentence answered the question.,Female,English,Chrome,Windows,768,1366,8.972166666666666,
2082,default,block1,julian,projective,0.85,5571,confess,20,confess,C,[],24,Yes,I wasn't sure exactly what it meant when it asked if a sentence sounded good? I based it on if the sentence answered the question.,Female,English,Chrome,Windows,768,1366,8.972166666666666,
2082,default,block1,mary,projective,0.38,18060,say,21,say,C,[],24,Yes,I wasn't sure exactly what it meant when it asked if a sentence sounded good? I based it on if the sentence answered the question.,Female,English,Chrome,Windows,768,1366,8.972166666666666,
2082,default,block1,muffins,projective,0.98,4992,MC,22,MC,MC,[],24,Yes,I wasn't sure exactly what it meant when it asked if a sentence sounded good? I based it on if the sentence answered the question.,Female,English,Chrome,Windows,768,1366,8.972166666666666,
2082,default,block1,jayden,projective,0.26,6523,confirm,23,confirm,C,[],24,Yes,I wasn't sure exactly what it meant when it asked if a sentence sounded good? I based it on if the sentence answered the question.,Female,English,Chrome,Windows,768,1366,8.972166666666666,
2082,default,block1,josie,projective,0.4,7555,reveal,24,reveal,C,[],24,Yes,I wasn't sure exactly what it meant when it asked if a sentence sounded good? I based it on if the sentence answered the question.,Female,English,Chrome,Windows,768,1366,8.972166666666666,
2082,default,block1,zoe,projective,0.22,8830,demonstrate,25,demonstrate,C,[],24,Yes,I wasn't sure exactly what it meant when it asked if a sentence sounded good? I based it on if the sentence answered the question.,Female,English,Chrome,Windows,768,1366,8.972166666666666,
2082,default,block1,frank,projective,0.56,6363,admit,26,admit,C,[],24,Yes,I wasn't sure exactly what it meant when it asked if a sentence sounded good? I based it on if the sentence answered the question.,Female,English,Chrome,Windows,768,1366,8.972166666666666,
2082,default,block1,sophia,projective,0.74,8568,announce,27,announce,C,[],24,Yes,I wasn't sure exactly what it meant when it asked if a sentence sounded good? I based it on if the sentence answered the question.,Female,English,Chrome,Windows,768,1366,8.972166666666666,
2082,default,block1,charley,projective,0.22,6443,suggest,28,suggest,C,[],24,Yes,I wasn't sure exactly what it meant when it asked if a sentence sounded good? I based it on if the sentence answered the question.,Female,English,Chrome,Windows,768,1366,8.972166666666666,
2082,default,block1,kids,projective,0.97,5909,MC,29,MC,MC,[],24,Yes,I wasn't sure exactly what it meant when it asked if a sentence sounded good? I based it on if the sentence answered the question.,Female,English,Chrome,Windows,768,1366,8.972166666666666,
2082,default,block1,danny,projective,0.79,6474,discover,30,discover,C,[],24,Yes,I wasn't sure exactly what it meant when it asked if a sentence sounded good? I based it on if the sentence answered the question.,Female,English,Chrome,Windows,768,1366,8.972166666666666,
2082,default,block2,sophia,ai,0.61,16408,announce,32,announce,C,[],24,Yes,I wasn't sure exactly what it meant when it asked if a sentence sounded good? I based it on if the sentence answered the question.,Female,English,Chrome,Windows,768,1366,8.972166666666666,
2082,default,block2,danny,ai,0.71,6497,discover,33,discover,C,[],24,Yes,I wasn't sure exactly what it meant when it asked if a sentence sounded good? I based it on if the sentence answered the question.,Female,English,Chrome,Windows,768,1366,8.972166666666666,
2082,default,block2,frank,ai,0.25,15340,admit,34,admit,C,[],24,Yes,I wasn't sure exactly what it meant when it asked if a sentence sounded good? I based it on if the sentence answered the question.,Female,English,Chrome,Windows,768,1366,8.972166666666666,
2082,default,block2,mary,ai,0.24,9084,say,35,say,C,[],24,Yes,I wasn't sure exactly what it meant when it asked if a sentence sounded good? I based it on if the sentence answered the question.,Female,English,Chrome,Windows,768,1366,8.972166666666666,
2082,default,block2,garage,ai,0.68,8288,MC,36,MC,MC,[],24,Yes,I wasn't sure exactly what it meant when it asked if a sentence sounded good? I based it on if the sentence answered the question.,Female,English,Chrome,Windows,768,1366,8.972166666666666,
2082,default,block2,pizza,ai,0.79,6043,MC,37,MC,MC,[],24,Yes,I wasn't sure exactly what it meant when it asked if a sentence sounded good? I based it on if the sentence answered the question.,Female,English,Chrome,Windows,768,1366,8.972166666666666,
2082,default,block2,grace,ai,0.87,8146,be_right,38,be_right,C,[],24,Yes,I wasn't sure exactly what it meant when it asked if a sentence sounded good? I based it on if the sentence answered the question.,Female,English,Chrome,Windows,768,1366,8.972166666666666,
2082,default,block2,kids,ai,0.69,12946,MC,39,MC,MC,[],24,Yes,I wasn't sure exactly what it meant when it asked if a sentence sounded good? I based it on if the sentence answered the question.,Female,English,Chrome,Windows,768,1366,8.972166666666666,
2082,default,block2,julian,ai,0.29,5569,confess,40,confess,C,[],24,Yes,I wasn't sure exactly what it meant when it asked if a sentence sounded good? I based it on if the sentence answered the question.,Female,English,Chrome,Windows,768,1366,8.972166666666666,
2082,default,block2,tony,ai,0.18,5793,be_annoyed,41,be_annoyed,C,[],24,Yes,I wasn't sure exactly what it meant when it asked if a sentence sounded good? I based it on if the sentence answered the question.,Female,English,Chrome,Windows,768,1366,8.972166666666666,
2082,default,block2,emily,ai,0.51,6054,establish,42,establish,C,[],24,Yes,I wasn't sure exactly what it meant when it asked if a sentence sounded good? I based it on if the sentence answered the question.,Female,English,Chrome,Windows,768,1366,8.972166666666666,
2082,default,block2,jon,ai,0.29,9207,think,43,think,C,[],24,Yes,I wasn't sure exactly what it meant when it asked if a sentence sounded good? I based it on if the sentence answered the question.,Female,English,Chrome,Windows,768,1366,8.972166666666666,
2082,default,block2,olivia,ai,0.61,5971,acknowledge,44,acknowledge,C,[],24,Yes,I wasn't sure exactly what it meant when it asked if a sentence sounded good? I based it on if the sentence answered the question.,Female,English,Chrome,Windows,768,1366,8.972166666666666,
2082,default,block2,josh,ai,0.27,5503,hear,45,hear,C,[],24,Yes,I wasn't sure exactly what it meant when it asked if a sentence sounded good? I based it on if the sentence answered the question.,Female,English,Chrome,Windows,768,1366,8.972166666666666,
2082,default,block2,jayden,ai,0.49,10701,confirm,46,confirm,C,[],24,Yes,I wasn't sure exactly what it meant when it asked if a sentence sounded good? I based it on if the sentence answered the question.,Female,English,Chrome,Windows,768,1366,8.972166666666666,
2082,default,block2,isabella,ai,0.31,5422,prove,47,prove,C,[],24,Yes,I wasn't sure exactly what it meant when it asked if a sentence sounded good? I based it on if the sentence answered the question.,Female,English,Chrome,Windows,768,1366,8.972166666666666,
2082,default,block2,josie,ai,0.25,6448,reveal,48,reveal,C,[],24,Yes,I wasn't sure exactly what it meant when it asked if a sentence sounded good? I based it on if the sentence answered the question.,Female,English,Chrome,Windows,768,1366,8.972166666666666,
2082,default,block2,owen,ai,0.2,8387,see,49,see,C,[],24,Yes,I wasn't sure exactly what it meant when it asked if a sentence sounded good? I based it on if the sentence answered the question.,Female,English,Chrome,Windows,768,1366,8.972166666666666,
2082,default,block2,jackson,ai,0.75,15856,pretend,50,pretend,C,[],24,Yes,I wasn't sure exactly what it meant when it asked if a sentence sounded good? I based it on if the sentence answered the question.,Female,English,Chrome,Windows,768,1366,8.972166666666666,
2082,default,block2,mia,ai,0.26,14792,inform,51,inform,C,[],24,Yes,I wasn't sure exactly what it meant when it asked if a sentence sounded good? I based it on if the sentence answered the question.,Female,English,Chrome,Windows,768,1366,8.972166666666666,
2082,default,block2,muffins,ai,0.55,8323,MC,52,MC,MC,[],24,Yes,I wasn't sure exactly what it meant when it asked if a sentence sounded good? I based it on if the sentence answered the question.,Female,English,Chrome,Windows,768,1366,8.972166666666666,
2082,default,block2,zoe,ai,0.24,5992,demonstrate,53,demonstrate,C,[],24,Yes,I wasn't sure exactly what it meant when it asked if a sentence sounded good? I based it on if the sentence answered the question.,Female,English,Chrome,Windows,768,1366,8.972166666666666,
2082,default,block2,ballet,ai,0.89,6133,MC,54,MC,MC,[],24,Yes,I wasn't sure exactly what it meant when it asked if a sentence sounded good? I based it on if the sentence answered the question.,Female,English,Chrome,Windows,768,1366,8.972166666666666,
2082,default,block2,hat,ai,0.55,5427,MC,55,MC,MC,[],24,Yes,I wasn't sure exactly what it meant when it asked if a sentence sounded good? I based it on if the sentence answered the question.,Female,English,Chrome,Windows,768,1366,8.972166666666666,
2082,default,block2,emma,ai,0.19,4881,know,56,know,C,[],24,Yes,I wasn't sure exactly what it meant when it asked if a sentence sounded good? I based it on if the sentence answered the question.,Female,English,Chrome,Windows,768,1366,8.972166666666666,
2082,default,block2,charley,ai,0.25,9719,suggest,57,suggest,C,[],24,Yes,I wasn't sure exactly what it meant when it asked if a sentence sounded good? I based it on if the sentence answered the question.,Female,English,Chrome,Windows,768,1366,8.972166666666666,
2187,default,block1,josie,projective,0.05,31335,reveal,5,reveal,C,[],24,Yes,,Female,English,Safari,iPhone/iPod,896,414,8.70615,
2187,default,block1,muffins,projective,0.99,12644,MC,6,MC,MC,[],24,Yes,,Female,English,Safari,iPhone/iPod,896,414,8.70615,
2187,default,block1,ballet,projective,0.97,6541,MC,7,MC,MC,[],24,Yes,,Female,English,Safari,iPhone/iPod,896,414,8.70615,
2187,default,block1,josh,projective,0.07,9280,see,8,see,C,[],24,Yes,,Female,English,Safari,iPhone/iPod,896,414,8.70615,
2187,default,block1,hat,projective,1,7228,MC,9,MC,MC,[],24,Yes,,Female,English,Safari,iPhone/iPod,896,414,8.70615,
2187,default,block1,grace,projective,0.91,8045,discover,10,discover,C,[],24,Yes,,Female,English,Safari,iPhone/iPod,896,414,8.70615,
2187,default,block1,tony,projective,0.08,9664,pretend,11,pretend,C,[],24,Yes,,Female,English,Safari,iPhone/iPod,896,414,8.70615,
2187,default,block1,frank,projective,0.95,11234,inform,12,inform,C,[],24,Yes,,Female,English,Safari,iPhone/iPod,896,414,8.70615,
2187,default,block1,jon,projective,1,7072,confess,13,confess,C,[],24,Yes,,Female,English,Safari,iPhone/iPod,896,414,8.70615,
2187,default,block1,isabella,projective,0.96,7848,know,14,know,C,[],24,Yes,,Female,English,Safari,iPhone/iPod,896,414,8.70615,
2187,default,block1,mary,projective,0.93,7891,be_annoyed,15,be_annoyed,C,[],24,Yes,,Female,English,Safari,iPhone/iPod,896,414,8.70615,
2187,default,block1,charley,projective,0.24,8753,be_right,16,be_right,C,[],24,Yes,,Female,English,Safari,iPhone/iPod,896,414,8.70615,
2187,default,block1,jayden,projective,1,11830,establish,17,establish,C,[],24,Yes,,Female,English,Safari,iPhone/iPod,896,414,8.70615,
2187,default,block1,sophia,projective,0.93,21654,hear,18,hear,C,[],24,Yes,,Female,English,Safari,iPhone/iPod,896,414,8.70615,
2187,default,block1,mia,projective,0.11,6207,suggest,19,suggest,C,[],24,Yes,,Female,English,Safari,iPhone/iPod,896,414,8.70615,
2187,default,block1,olivia,projective,0.17,6875,demonstrate,20,demonstrate,C,[],24,Yes,,Female,English,Safari,iPhone/iPod,896,414,8.70615,
2187,default,block1,zoe,projective,0.12,6774,say,21,say,C,[],24,Yes,,Female,English,Safari,iPhone/iPod,896,414,8.70615,
2187,default,block1,julian,projective,0.75,6082,confirm,22,confirm,C,[],24,Yes,,Female,English,Safari,iPhone/iPod,896,414,8.70615,
2187,default,block1,garage,projective,0.93,5267,MC,23,MC,MC,[],24,Yes,,Female,English,Safari,iPhone/iPod,896,414,8.70615,
2187,default,block1,emily,projective,0.06,9150,think,24,think,C,[],24,Yes,,Female,English,Safari,iPhone/iPod,896,414,8.70615,
2187,default,block1,emma,projective,0.85,6828,acknowledge,25,acknowledge,C,[],24,Yes,,Female,English,Safari,iPhone/iPod,896,414,8.70615,
2187,default,block1,danny,projective,0.93,6401,announce,26,announce,C,[],24,Yes,,Female,English,Safari,iPhone/iPod,896,414,8.70615,
2187,default,block1,kids,projective,0.94,5782,MC,27,MC,MC,[],24,Yes,,Female,English,Safari,iPhone/iPod,896,414,8.70615,
2187,default,block1,owen,projective,0.81,8850,admit,28,admit,C,[],24,Yes,,Female,English,Safari,iPhone/iPod,896,414,8.70615,
2187,default,block1,pizza,projective,0.94,5718,MC,29,MC,MC,[],24,Yes,,Female,English,Safari,iPhone/iPod,896,414,8.70615,
2187,default,block1,jackson,projective,0.69,10681,prove,30,prove,C,[],24,Yes,,Female,English,Safari,iPhone/iPod,896,414,8.70615,
2187,default,block2,julian,ai,0.89,7481,confirm,32,confirm,C,[],24,Yes,,Female,English,Safari,iPhone/iPod,896,414,8.70615,
2187,default,block2,emily,ai,0.87,6685,think,33,think,C,[],24,Yes,,Female,English,Safari,iPhone/iPod,896,414,8.70615,
2187,default,block2,mia,ai,0.88,7463,suggest,34,suggest,C,[],24,Yes,,Female,English,Safari,iPhone/iPod,896,414,8.70615,
2187,default,block2,ballet,ai,0.98,4256,MC,35,MC,MC,[],24,Yes,,Female,English,Safari,iPhone/iPod,896,414,8.70615,
2187,default,block2,grace,ai,0.84,5375,discover,36,discover,C,[],24,Yes,,Female,English,Safari,iPhone/iPod,896,414,8.70615,
2187,default,block2,tony,ai,0.62,7350,pretend,37,pretend,C,[],24,Yes,,Female,English,Safari,iPhone/iPod,896,414,8.70615,
2187,default,block2,josh,ai,0.99,23421,see,38,see,C,[],24,Yes,,Female,English,Safari,iPhone/iPod,896,414,8.70615,
2187,default,block2,sophia,ai,0.81,5266,hear,39,hear,C,[],24,Yes,,Female,English,Safari,iPhone/iPod,896,414,8.70615,
2187,default,block2,mary,ai,0.36,8883,be_annoyed,40,be_annoyed,C,[],24,Yes,,Female,English,Safari,iPhone/iPod,896,414,8.70615,
2187,default,block2,pizza,ai,0.95,7445,MC,41,MC,MC,[],24,Yes,,Female,English,Safari,iPhone/iPod,896,414,8.70615,
2187,default,block2,kids,ai,0.83,8613,MC,42,MC,MC,[],24,Yes,,Female,English,Safari,iPhone/iPod,896,414,8.70615,
2187,default,block2,frank,ai,0.56,11449,inform,43,inform,C,[],24,Yes,,Female,English,Safari,iPhone/iPod,896,414,8.70615,
2187,default,block2,jon,ai,0.61,19157,confess,44,confess,C,[],24,Yes,,Female,English,Safari,iPhone/iPod,896,414,8.70615,
2187,default,block2,jayden,ai,0.71,7664,establish,45,establish,C,[],24,Yes,,Female,English,Safari,iPhone/iPod,896,414,8.70615,
2187,default,block2,emma,ai,0.7,5823,acknowledge,46,acknowledge,C,[],24,Yes,,Female,English,Safari,iPhone/iPod,896,414,8.70615,
2187,default,block2,owen,ai,0.81,4983,admit,47,admit,C,[],24,Yes,,Female,English,Safari,iPhone/iPod,896,414,8.70615,
2187,default,block2,hat,ai,0.99,10593,MC,48,MC,MC,[],24,Yes,,Female,English,Safari,iPhone/iPod,896,414,8.70615,
2187,default,block2,olivia,ai,0.51,6650,demonstrate,49,demonstrate,C,[],24,Yes,,Female,English,Safari,iPhone/iPod,896,414,8.70615,
2187,default,block2,isabella,ai,0.45,8040,know,50,know,C,[],24,Yes,,Female,English,Safari,iPhone/iPod,896,414,8.70615,
2187,default,block2,muffins,ai,0.96,4821,MC,51,MC,MC,[],24,Yes,,Female,English,Safari,iPhone/iPod,896,414,8.70615,
2187,default,block2,danny,ai,0.47,8494,announce,52,announce,C,[],24,Yes,,Female,English,Safari,iPhone/iPod,896,414,8.70615,
2187,default,block2,jackson,ai,0.74,9210,prove,53,prove,C,[],24,Yes,,Female,English,Safari,iPhone/iPod,896,414,8.70615,
2187,default,block2,charley,ai,0.79,5417,be_right,54,be_right,C,[],24,Yes,,Female,English,Safari,iPhone/iPod,896,414,8.70615,
2187,default,block2,garage,ai,0.91,4733,MC,55,MC,MC,[],24,Yes,,Female,English,Safari,iPhone/iPod,896,414,8.70615,
2187,default,block2,zoe,ai,0.57,7450,say,56,say,C,[],24,Yes,,Female,English,Safari,iPhone/iPod,896,414,8.70615,
2187,default,block2,josie,ai,0.56,7431,reveal,57,reveal,C,[],24,Yes,,Female,English,Safari,iPhone/iPod,896,414,8.70615,
2254,default,block1,emily,ai,0.97,32028,prove,5,prove,C,[],26,Yes,Study was fun all the way.,Male,English,Chrome,Windows,900,1600,58.05061666666667,
2254,default,block1,jayden,ai,0.99,49618,establish,6,establish,C,[],26,Yes,Study was fun all the way.,Male,English,Chrome,Windows,900,1600,58.05061666666667,
2254,default,block1,ballet,ai,0.97,26508,MC,7,MC,MC,[],26,Yes,Study was fun all the way.,Male,English,Chrome,Windows,900,1600,58.05061666666667,
2254,default,block1,danny,ai,0.74,28739,know,8,know,C,[],26,Yes,Study was fun all the way.,Male,English,Chrome,Windows,900,1600,58.05061666666667,
2254,default,block1,owen,ai,0.95,49259,confirm,9,confirm,C,[],26,Yes,Study was fun all the way.,Male,English,Chrome,Windows,900,1600,58.05061666666667,
2254,default,block1,emma,ai,0.99,15074,hear,10,hear,C,[],26,Yes,Study was fun all the way.,Male,English,Chrome,Windows,900,1600,58.05061666666667,
2254,default,block1,kids,ai,0.98,11947,MC,11,MC,MC,[],26,Yes,Study was fun all the way.,Male,English,Chrome,Windows,900,1600,58.05061666666667,
2254,default,block1,josie,ai,0.97,8720,announce,12,announce,C,[],26,Yes,Study was fun all the way.,Male,English,Chrome,Windows,900,1600,58.05061666666667,
2254,default,block1,jon,ai,0.98,15234,say,13,say,C,[],26,Yes,Study was fun all the way.,Male,English,Chrome,Windows,900,1600,58.05061666666667,
2254,default,block1,mary,ai,0.93,82732,discover,14,discover,C,[],26,Yes,Study was fun all the way.,Male,English,Chrome,Windows,900,1600,58.05061666666667,
2254,default,block1,tony,ai,0.96,6892,confess,15,confess,C,[],26,Yes,Study was fun all the way.,Male,English,Chrome,Windows,900,1600,58.05061666666667,
2254,default,block1,zoe,ai,0.96,12327,reveal,16,reveal,C,[],26,Yes,Study was fun all the way.,Male,English,Chrome,Windows,900,1600,58.05061666666667,
2254,default,block1,muffins,ai,0.99,44230,MC,17,MC,MC,[],26,Yes,Study was fun all the way.,Male,English,Chrome,Windows,900,1600,58.05061666666667,
2254,default,block1,josh,ai,0.97,3619,think,18,think,C,[],26,Yes,Study was fun all the way.,Male,English,Chrome,Windows,900,1600,58.05061666666667,
2254,default,block1,isabella,ai,0.98,4686,be_annoyed,19,be_annoyed,C,[],26,Yes,Study was fun all the way.,Male,English,Chrome,Windows,900,1600,58.05061666666667,
2254,default,block1,mia,ai,1,5778,acknowledge,20,acknowledge,C,[],26,Yes,Study was fun all the way.,Male,English,Chrome,Windows,900,1600,58.05061666666667,
2254,default,block1,garage,ai,0.98,87597,MC,21,MC,MC,[],26,Yes,Study was fun all the way.,Male,English,Chrome,Windows,900,1600,58.05061666666667,
2254,default,block1,julian,ai,0.99,43930,suggest,22,suggest,C,[],26,Yes,Study was fun all the way.,Male,English,Chrome,Windows,900,1600,58.05061666666667,
2254,default,block1,sophia,ai,0.52,49277,inform,23,inform,C,[],26,Yes,Study was fun all the way.,Male,English,Chrome,Windows,900,1600,58.05061666666667,
2254,default,block1,frank,ai,0.98,8085,pretend,24,pretend,C,[],26,Yes,Study was fun all the way.,Male,English,Chrome,Windows,900,1600,58.05061666666667,
2254,default,block1,olivia,ai,0.98,4526,be_right,25,be_right,C,[],26,Yes,Study was fun all the way.,Male,English,Chrome,Windows,900,1600,58.05061666666667,
2254,default,block1,jackson,ai,0.49,5618,see,26,see,C,[],26,Yes,Study was fun all the way.,Male,English,Chrome,Windows,900,1600,58.05061666666667,
2254,default,block1,hat,ai,0.98,165485,MC,27,MC,MC,[],26,Yes,Study was fun all the way.,Male,English,Chrome,Windows,900,1600,58.05061666666667,
2254,default,block1,grace,ai,0.99,12169,admit,28,admit,C,[],26,Yes,Study was fun all the way.,Male,English,Chrome,Windows,900,1600,58.05061666666667,
2254,default,block1,charley,ai,0.98,3459,demonstrate,29,demonstrate,C,[],26,Yes,Study was fun all the way.,Male,English,Chrome,Windows,900,1600,58.05061666666667,
2254,default,block1,pizza,ai,0.5,3436,MC,30,MC,MC,[],26,Yes,Study was fun all the way.,Male,English,Chrome,Windows,900,1600,58.05061666666667,
2254,default,block2,zoe,projective,0.99,8734,reveal,32,reveal,C,[],26,Yes,Study was fun all the way.,Male,English,Chrome,Windows,900,1600,58.05061666666667,
2254,default,block2,jon,projective,0.48,27209,say,33,say,C,[],26,Yes,Study was fun all the way.,Male,English,Chrome,Windows,900,1600,58.05061666666667,
2254,default,block2,mia,projective,0.75,9017,acknowledge,34,acknowledge,C,[],26,Yes,Study was fun all the way.,Male,English,Chrome,Windows,900,1600,58.05061666666667,
2254,default,block2,jayden,projective,0.99,5299,establish,35,establish,C,[],26,Yes,Study was fun all the way.,Male,English,Chrome,Windows,900,1600,58.05061666666667,
2254,default,block2,isabella,projective,0.48,11213,be_annoyed,36,be_annoyed,C,[],26,Yes,Study was fun all the way.,Male,English,Chrome,Windows,900,1600,58.05061666666667,
2254,default,block2,ballet,projective,0.77,4908,MC,37,MC,MC,[],26,Yes,Study was fun all the way.,Male,English,Chrome,Windows,900,1600,58.05061666666667,
2254,default,block2,jackson,projective,0.66,8330,see,38,see,C,[],26,Yes,Study was fun all the way.,Male,English,Chrome,Windows,900,1600,58.05061666666667,
2254,default,block2,garage,projective,0.98,10195,MC,39,MC,MC,[],26,Yes,Study was fun all the way.,Male,English,Chrome,Windows,900,1600,58.05061666666667,
2254,default,block2,frank,projective,0.99,5372,pretend,40,pretend,C,[],26,Yes,Study was fun all the way.,Male,English,Chrome,Windows,900,1600,58.05061666666667,
2254,default,block2,mary,projective,0.99,5533,discover,41,discover,C,[],26,Yes,Study was fun all the way.,Male,English,Chrome,Windows,900,1600,58.05061666666667,
2254,default,block2,owen,projective,0.71,11923,confirm,42,confirm,C,[],26,Yes,Study was fun all the way.,Male,English,Chrome,Windows,900,1600,58.05061666666667,
2254,default,block2,muffins,projective,0.98,8010,MC,43,MC,MC,[],26,Yes,Study was fun all the way.,Male,English,Chrome,Windows,900,1600,58.05061666666667,
2254,default,block2,emily,projective,0.98,7300,prove,44,prove,C,[],26,Yes,Study was fun all the way.,Male,English,Chrome,Windows,900,1600,58.05061666666667,
2254,default,block2,kids,projective,0.97,15198,MC,45,MC,MC,[],26,Yes,Study was fun all the way.,Male,English,Chrome,Windows,900,1600,58.05061666666667,
2254,default,block2,josh,projective,0.72,2822,think,46,think,C,[],26,Yes,Study was fun all the way.,Male,English,Chrome,Windows,900,1600,58.05061666666667,
2254,default,block2,olivia,projective,0.79,33896,be_right,47,be_right,C,[],26,Yes,Study was fun all the way.,Male,English,Chrome,Windows,900,1600,58.05061666666667,
2254,default,block2,grace,projective,0.79,7519,admit,48,admit,C,[],26,Yes,Study was fun all the way.,Male,English,Chrome,Windows,900,1600,58.05061666666667,
2254,default,block2,emma,projective,0,10084,hear,49,hear,C,[],26,Yes,Study was fun all the way.,Male,English,Chrome,Windows,900,1600,58.05061666666667,
2254,default,block2,charley,projective,0.44,3803,demonstrate,50,demonstrate,C,[],26,Yes,Study was fun all the way.,Male,English,Chrome,Windows,900,1600,58.05061666666667,
2254,default,block2,tony,projective,0.73,5902,confess,51,confess,C,[],26,Yes,Study was fun all the way.,Male,English,Chrome,Windows,900,1600,58.05061666666667,
2254,default,block2,hat,projective,0.72,59306,MC,52,MC,MC,[],26,Yes,Study was fun all the way.,Male,English,Chrome,Windows,900,1600,58.05061666666667,
2254,default,block2,sophia,projective,0.29,33607,inform,53,inform,C,[],26,Yes,Study was fun all the way.,Male,English,Chrome,Windows,900,1600,58.05061666666667,
2254,default,block2,danny,projective,0.72,8514,know,54,know,C,[],26,Yes,Study was fun all the way.,Male,English,Chrome,Windows,900,1600,58.05061666666667,
2254,default,block2,julian,projective,0.72,946886,suggest,55,suggest,C,[],26,Yes,Study was fun all the way.,Male,English,Chrome,Windows,900,1600,58.05061666666667,
2254,default,block2,josie,projective,1,101459,announce,56,announce,C,[],26,Yes,Study was fun all the way.,Male,English,Chrome,Windows,900,1600,58.05061666666667,
2254,default,block2,pizza,projective,0.96,2957,MC,57,MC,MC,[],26,Yes,Study was fun all the way.,Male,English,Chrome,Windows,900,1600,58.05061666666667,
2175,default,block1,olivia,projective,0.27,24705,prove,5,prove,C,[],57,Yes,It was interesting how I felt about certain responses to certain statements. ,Female,English,Chrome,Mac,1440,2560,11.360833333333334,
2175,default,block1,charley,projective,0.75,27990,announce,6,announce,C,[],57,Yes,It was interesting how I felt about certain responses to certain statements. ,Female,English,Chrome,Mac,1440,2560,11.360833333333334,
2175,default,block1,jayden,projective,0.7,23085,inform,7,inform,C,[],57,Yes,It was interesting how I felt about certain responses to certain statements. ,Female,English,Chrome,Mac,1440,2560,11.360833333333334,
2175,default,block1,danny,projective,0.28,8044,establish,8,establish,C,[],57,Yes,It was interesting how I felt about certain responses to certain statements. ,Female,English,Chrome,Mac,1440,2560,11.360833333333334,
2175,default,block1,grace,projective,0.26,7189,see,9,see,C,[],57,Yes,It was interesting how I felt about certain responses to certain statements. ,Female,English,Chrome,Mac,1440,2560,11.360833333333334,
2175,default,block1,garage,projective,0.98,9428,MC,10,MC,MC,[],57,Yes,It was interesting how I felt about certain responses to certain statements. ,Female,English,Chrome,Mac,1440,2560,11.360833333333334,
2175,default,block1,jackson,projective,0.21,8415,be_right,11,be_right,C,[],57,Yes,It was interesting how I felt about certain responses to certain statements. ,Female,English,Chrome,Mac,1440,2560,11.360833333333334,
2175,default,block1,tony,projective,0.73,15199,acknowledge,12,acknowledge,C,[],57,Yes,It was interesting how I felt about certain responses to certain statements. ,Female,English,Chrome,Mac,1440,2560,11.360833333333334,
2175,default,block1,mia,projective,0.21,6221,discover,13,discover,C,[],57,Yes,It was interesting how I felt about certain responses to certain statements. ,Female,English,Chrome,Mac,1440,2560,11.360833333333334,
2175,default,block1,pizza,projective,0.99,8617,MC,14,MC,MC,[],57,Yes,It was interesting how I felt about certain responses to certain statements. ,Female,English,Chrome,Mac,1440,2560,11.360833333333334,
2175,default,block1,mary,projective,0.19,7189,think,15,think,C,[],57,Yes,It was interesting how I felt about certain responses to certain statements. ,Female,English,Chrome,Mac,1440,2560,11.360833333333334,
2175,default,block1,ballet,projective,0.99,5974,MC,16,MC,MC,[],57,Yes,It was interesting how I felt about certain responses to certain statements. ,Female,English,Chrome,Mac,1440,2560,11.360833333333334,
2175,default,block1,josie,projective,0.16,7808,say,17,say,C,[],57,Yes,It was interesting how I felt about certain responses to certain statements. ,Female,English,Chrome,Mac,1440,2560,11.360833333333334,
2175,default,block1,jon,projective,0.76,6806,know,18,know,C,[],57,Yes,It was interesting how I felt about certain responses to certain statements. ,Female,English,Chrome,Mac,1440,2560,11.360833333333334,
2175,default,block1,kids,projective,0.99,7482,MC,19,MC,MC,[],57,Yes,It was interesting how I felt about certain responses to certain statements. ,Female,English,Chrome,Mac,1440,2560,11.360833333333334,
2175,default,block1,hat,projective,0.97,5107,MC,20,MC,MC,[],57,Yes,It was interesting how I felt about certain responses to certain statements. ,Female,English,Chrome,Mac,1440,2560,11.360833333333334,
2175,default,block1,emma,projective,0.23,9934,suggest,21,suggest,C,[],57,Yes,It was interesting how I felt about certain responses to certain statements. ,Female,English,Chrome,Mac,1440,2560,11.360833333333334,
2175,default,block1,sophia,projective,0.87,9676,confess,22,confess,C,[],57,Yes,It was interesting how I felt about certain responses to certain statements. ,Female,English,Chrome,Mac,1440,2560,11.360833333333334,
2175,default,block1,josh,projective,0.8,14119,demonstrate,23,demonstrate,C,[],57,Yes,It was interesting how I felt about certain responses to certain statements. ,Female,English,Chrome,Mac,1440,2560,11.360833333333334,
2175,default,block1,muffins,projective,0.98,7076,MC,24,MC,MC,[],57,Yes,It was interesting how I felt about certain responses to certain statements. ,Female,English,Chrome,Mac,1440,2560,11.360833333333334,
2175,default,block1,frank,projective,0.99,6829,reveal,25,reveal,C,[],57,Yes,It was interesting how I felt about certain responses to certain statements. ,Female,English,Chrome,Mac,1440,2560,11.360833333333334,
2175,default,block1,owen,projective,0.81,7673,confirm,26,confirm,C,[],57,Yes,It was interesting how I felt about certain responses to certain statements. ,Female,English,Chrome,Mac,1440,2560,11.360833333333334,
2175,default,block1,zoe,projective,0.25,9607,hear,27,hear,C,[],57,Yes,It was interesting how I felt about certain responses to certain statements. ,Female,English,Chrome,Mac,1440,2560,11.360833333333334,
2175,default,block1,julian,projective,0.98,6919,be_annoyed,28,be_annoyed,C,[],57,Yes,It was interesting how I felt about certain responses to certain statements. ,Female,English,Chrome,Mac,1440,2560,11.360833333333334,
2175,default,block1,isabella,projective,0.17,5727,pretend,29,pretend,C,[],57,Yes,It was interesting how I felt about certain responses to certain statements. ,Female,English,Chrome,Mac,1440,2560,11.360833333333334,
2175,default,block1,emily,projective,0.78,7729,admit,30,admit,C,[],57,Yes,It was interesting how I felt about certain responses to certain statements. ,Female,English,Chrome,Mac,1440,2560,11.360833333333334,
2175,default,block2,tony,ai,0.45,20812,acknowledge,32,acknowledge,C,[],57,Yes,It was interesting how I felt about certain responses to certain statements. ,Female,English,Chrome,Mac,1440,2560,11.360833333333334,
2175,default,block2,sophia,ai,0.81,7628,confess,33,confess,C,[],57,Yes,It was interesting how I felt about certain responses to certain statements. ,Female,English,Chrome,Mac,1440,2560,11.360833333333334,
2175,default,block2,josh,ai,0.28,8798,demonstrate,34,demonstrate,C,[],57,Yes,It was interesting how I felt about certain responses to certain statements. ,Female,English,Chrome,Mac,1440,2560,11.360833333333334,
2175,default,block2,emma,ai,0.29,9866,suggest,35,suggest,C,[],57,Yes,It was interesting how I felt about certain responses to certain statements. ,Female,English,Chrome,Mac,1440,2560,11.360833333333334,
2175,default,block2,josie,ai,0.47,7650,say,36,say,C,[],57,Yes,It was interesting how I felt about certain responses to certain statements. ,Female,English,Chrome,Mac,1440,2560,11.360833333333334,
2175,default,block2,jon,ai,0.86,6773,know,37,know,C,[],57,Yes,It was interesting how I felt about certain responses to certain statements. ,Female,English,Chrome,Mac,1440,2560,11.360833333333334,
2175,default,block2,jackson,ai,0.53,9372,be_right,38,be_right,C,[],57,Yes,It was interesting how I felt about certain responses to certain statements. ,Female,English,Chrome,Mac,1440,2560,11.360833333333334,
2175,default,block2,charley,ai,0.49,23389,announce,39,announce,C,[],57,Yes,It was interesting how I felt about certain responses to certain statements. ,Female,English,Chrome,Mac,1440,2560,11.360833333333334,
2175,default,block2,garage,ai,0.78,5411,MC,40,MC,MC,[],57,Yes,It was interesting how I felt about certain responses to certain statements. ,Female,English,Chrome,Mac,1440,2560,11.360833333333334,
2175,default,block2,hat,ai,0.31,8101,MC,41,MC,MC,[],57,Yes,It was interesting how I felt about certain responses to certain statements. ,Female,English,Chrome,Mac,1440,2560,11.360833333333334,
2175,default,block2,mia,ai,0.48,5186,discover,42,discover,C,[],57,Yes,It was interesting how I felt about certain responses to certain statements. ,Female,English,Chrome,Mac,1440,2560,11.360833333333334,
2175,default,block2,frank,ai,0.75,4522,reveal,43,reveal,C,[],57,Yes,It was interesting how I felt about certain responses to certain statements. ,Female,English,Chrome,Mac,1440,2560,11.360833333333334,
2175,default,block2,mary,ai,0.51,4454,think,44,think,C,[],57,Yes,It was interesting how I felt about certain responses to certain statements. ,Female,English,Chrome,Mac,1440,2560,11.360833333333334,
2175,default,block2,grace,ai,0.48,4656,see,45,see,C,[],57,Yes,It was interesting how I felt about certain responses to certain statements. ,Female,English,Chrome,Mac,1440,2560,11.360833333333334,
2175,default,block2,ballet,ai,0.76,4208,MC,46,MC,MC,[],57,Yes,It was interesting how I felt about certain responses to certain statements. ,Female,English,Chrome,Mac,1440,2560,11.360833333333334,
2175,default,block2,pizza,ai,0.34,5287,MC,47,MC,MC,[],57,Yes,It was interesting how I felt about certain responses to certain statements. ,Female,English,Chrome,Mac,1440,2560,11.360833333333334,
2175,default,block2,emily,ai,0.55,5287,admit,48,admit,C,[],57,Yes,It was interesting how I felt about certain responses to certain statements. ,Female,English,Chrome,Mac,1440,2560,11.360833333333334,
2175,default,block2,julian,ai,0.33,9372,be_annoyed,49,be_annoyed,C,[],57,Yes,It was interesting how I felt about certain responses to certain statements. ,Female,English,Chrome,Mac,1440,2560,11.360833333333334,
2175,default,block2,kids,ai,0.71,25031,MC,50,MC,MC,[],57,Yes,It was interesting how I felt about certain responses to certain statements. ,Female,English,Chrome,Mac,1440,2560,11.360833333333334,
2175,default,block2,owen,ai,0.49,6502,confirm,51,confirm,C,[],57,Yes,It was interesting how I felt about certain responses to certain statements. ,Female,English,Chrome,Mac,1440,2560,11.360833333333334,
2175,default,block2,muffins,ai,0.32,5120,MC,52,MC,MC,[],57,Yes,It was interesting how I felt about certain responses to certain statements. ,Female,English,Chrome,Mac,1440,2560,11.360833333333334,
2175,default,block2,jayden,ai,0.32,5827,inform,53,inform,C,[],57,Yes,It was interesting how I felt about certain responses to certain statements. ,Female,English,Chrome,Mac,1440,2560,11.360833333333334,
2175,default,block2,olivia,ai,0.66,8123,prove,54,prove,C,[],57,Yes,It was interesting how I felt about certain responses to certain statements. ,Female,English,Chrome,Mac,1440,2560,11.360833333333334,
2175,default,block2,zoe,ai,0.51,4725,hear,55,hear,C,[],57,Yes,It was interesting how I felt about certain responses to certain statements. ,Female,English,Chrome,Mac,1440,2560,11.360833333333334,
2175,default,block2,isabella,ai,0.12,6908,pretend,56,pretend,C,[],57,Yes,It was interesting how I felt about certain responses to certain statements. ,Female,English,Chrome,Mac,1440,2560,11.360833333333334,
2175,default,block2,danny,ai,0.76,6907,establish,57,establish,C,[],57,Yes,It was interesting how I felt about certain responses to certain statements. ,Female,English,Chrome,Mac,1440,2560,11.360833333333334,
2006,default,block1,grace,projective,0.99,11215,know,5,know,C,[],21,Yes,"Very confused about the second part of the survey and what qualifies as a ""good"" response. ",Female,English,Chrome,Windows,1080,1920,6.0064,
2006,default,block1,mary,projective,0.98,3767,discover,6,discover,C,[],21,Yes,"Very confused about the second part of the survey and what qualifies as a ""good"" response. ",Female,English,Chrome,Windows,1080,1920,6.0064,
2006,default,block1,emma,projective,0,12504,suggest,7,suggest,C,[],21,Yes,"Very confused about the second part of the survey and what qualifies as a ""good"" response. ",Female,English,Chrome,Windows,1080,1920,6.0064,
2006,default,block1,mia,projective,0.69,10320,confirm,8,confirm,C,[],21,Yes,"Very confused about the second part of the survey and what qualifies as a ""good"" response. ",Female,English,Chrome,Windows,1080,1920,6.0064,
2006,default,block1,emily,projective,0.78,7312,acknowledge,9,acknowledge,C,[],21,Yes,"Very confused about the second part of the survey and what qualifies as a ""good"" response. ",Female,English,Chrome,Windows,1080,1920,6.0064,
2006,default,block1,muffins,projective,1,5360,MC,10,MC,MC,[],21,Yes,"Very confused about the second part of the survey and what qualifies as a ""good"" response. ",Female,English,Chrome,Windows,1080,1920,6.0064,
2006,default,block1,pizza,projective,1,4440,MC,11,MC,MC,[],21,Yes,"Very confused about the second part of the survey and what qualifies as a ""good"" response. ",Female,English,Chrome,Windows,1080,1920,6.0064,
2006,default,block1,olivia,projective,0.63,11288,confess,12,confess,C,[],21,Yes,"Very confused about the second part of the survey and what qualifies as a ""good"" response. ",Female,English,Chrome,Windows,1080,1920,6.0064,
2006,default,block1,zoe,projective,0.19,8464,be_right,13,be_right,C,[],21,Yes,"Very confused about the second part of the survey and what qualifies as a ""good"" response. ",Female,English,Chrome,Windows,1080,1920,6.0064,
2006,default,block1,kids,projective,1,7792,MC,14,MC,MC,[],21,Yes,"Very confused about the second part of the survey and what qualifies as a ""good"" response. ",Female,English,Chrome,Windows,1080,1920,6.0064,
2006,default,block1,julian,projective,0.82,4304,hear,15,hear,C,[],21,Yes,"Very confused about the second part of the survey and what qualifies as a ""good"" response. ",Female,English,Chrome,Windows,1080,1920,6.0064,
2006,default,block1,tony,projective,0.7,4736,establish,16,establish,C,[],21,Yes,"Very confused about the second part of the survey and what qualifies as a ""good"" response. ",Female,English,Chrome,Windows,1080,1920,6.0064,
2006,default,block1,garage,projective,1,5712,MC,17,MC,MC,[],21,Yes,"Very confused about the second part of the survey and what qualifies as a ""good"" response. ",Female,English,Chrome,Windows,1080,1920,6.0064,
2006,default,block1,josh,projective,0.59,5584,announce,18,announce,C,[],21,Yes,"Very confused about the second part of the survey and what qualifies as a ""good"" response. ",Female,English,Chrome,Windows,1080,1920,6.0064,
2006,default,block1,owen,projective,0.83,7344,reveal,19,reveal,C,[],21,Yes,"Very confused about the second part of the survey and what qualifies as a ""good"" response. ",Female,English,Chrome,Windows,1080,1920,6.0064,
2006,default,block1,jayden,projective,0.31,5976,think,20,think,C,[],21,Yes,"Very confused about the second part of the survey and what qualifies as a ""good"" response. ",Female,English,Chrome,Windows,1080,1920,6.0064,
2006,default,block1,jackson,projective,1,5784,admit,21,admit,C,[],21,Yes,"Very confused about the second part of the survey and what qualifies as a ""good"" response. ",Female,English,Chrome,Windows,1080,1920,6.0064,
2006,default,block1,hat,projective,0.99,4240,MC,22,MC,MC,[],21,Yes,"Very confused about the second part of the survey and what qualifies as a ""good"" response. ",Female,English,Chrome,Windows,1080,1920,6.0064,
2006,default,block1,isabella,projective,0.37,6312,demonstrate,23,demonstrate,C,[],21,Yes,"Very confused about the second part of the survey and what qualifies as a ""good"" response. ",Female,English,Chrome,Windows,1080,1920,6.0064,
2006,default,block1,josie,projective,1,4920,be_annoyed,24,be_annoyed,C,[],21,Yes,"Very confused about the second part of the survey and what qualifies as a ""good"" response. ",Female,English,Chrome,Windows,1080,1920,6.0064,
2006,default,block1,jon,projective,0.78,7608,inform,25,inform,C,[],21,Yes,"Very confused about the second part of the survey and what qualifies as a ""good"" response. ",Female,English,Chrome,Windows,1080,1920,6.0064,
2006,default,block1,sophia,projective,0.19,6352,say,26,say,C,[],21,Yes,"Very confused about the second part of the survey and what qualifies as a ""good"" response. ",Female,English,Chrome,Windows,1080,1920,6.0064,
2006,default,block1,danny,projective,0,7344,pretend,27,pretend,C,[],21,Yes,"Very confused about the second part of the survey and what qualifies as a ""good"" response. ",Female,English,Chrome,Windows,1080,1920,6.0064,
2006,default,block1,ballet,projective,1,5095,MC,28,MC,MC,[],21,Yes,"Very confused about the second part of the survey and what qualifies as a ""good"" response. ",Female,English,Chrome,Windows,1080,1920,6.0064,
2006,default,block1,frank,projective,1,3152,see,29,see,C,[],21,Yes,"Very confused about the second part of the survey and what qualifies as a ""good"" response. ",Female,English,Chrome,Windows,1080,1920,6.0064,
2006,default,block1,charley,projective,1,5608,prove,30,prove,C,[],21,Yes,"Very confused about the second part of the survey and what qualifies as a ""good"" response. ",Female,English,Chrome,Windows,1080,1920,6.0064,
2006,default,block2,garage,ai,0.29,11239,MC,32,MC,MC,[],21,Yes,"Very confused about the second part of the survey and what qualifies as a ""good"" response. ",Female,English,Chrome,Windows,1080,1920,6.0064,
2006,default,block2,ballet,ai,0.66,6097,MC,33,MC,MC,[],21,Yes,"Very confused about the second part of the survey and what qualifies as a ""good"" response. ",Female,English,Chrome,Windows,1080,1920,6.0064,
2006,default,block2,jon,ai,0.35,4256,inform,34,inform,C,[],21,Yes,"Very confused about the second part of the survey and what qualifies as a ""good"" response. ",Female,English,Chrome,Windows,1080,1920,6.0064,
2006,default,block2,danny,ai,0.77,7647,pretend,35,pretend,C,[],21,Yes,"Very confused about the second part of the survey and what qualifies as a ""good"" response. ",Female,English,Chrome,Windows,1080,1920,6.0064,
2006,default,block2,owen,ai,0.68,4743,reveal,36,reveal,C,[],21,Yes,"Very confused about the second part of the survey and what qualifies as a ""good"" response. ",Female,English,Chrome,Windows,1080,1920,6.0064,
2006,default,block2,mary,ai,1,3881,discover,37,discover,C,[],21,Yes,"Very confused about the second part of the survey and what qualifies as a ""good"" response. ",Female,English,Chrome,Windows,1080,1920,6.0064,
2006,default,block2,jackson,ai,1,4416,admit,38,admit,C,[],21,Yes,"Very confused about the second part of the survey and what qualifies as a ""good"" response. ",Female,English,Chrome,Windows,1080,1920,6.0064,
2006,default,block2,josie,ai,0.26,5728,be_annoyed,39,be_annoyed,C,[],21,Yes,"Very confused about the second part of the survey and what qualifies as a ""good"" response. ",Female,English,Chrome,Windows,1080,1920,6.0064,
2006,default,block2,emma,ai,0.31,4968,suggest,40,suggest,C,[],21,Yes,"Very confused about the second part of the survey and what qualifies as a ""good"" response. ",Female,English,Chrome,Windows,1080,1920,6.0064,
2006,default,block2,julian,ai,0.89,3096,hear,41,hear,C,[],21,Yes,"Very confused about the second part of the survey and what qualifies as a ""good"" response. ",Female,English,Chrome,Windows,1080,1920,6.0064,
2006,default,block2,charley,ai,0.7,4312,prove,42,prove,C,[],21,Yes,"Very confused about the second part of the survey and what qualifies as a ""good"" response. ",Female,English,Chrome,Windows,1080,1920,6.0064,
2006,default,block2,mia,ai,0.74,4040,confirm,43,confirm,C,[],21,Yes,"Very confused about the second part of the survey and what qualifies as a ""good"" response. ",Female,English,Chrome,Windows,1080,1920,6.0064,
2006,default,block2,sophia,ai,0.3,7272,say,44,say,C,[],21,Yes,"Very confused about the second part of the survey and what qualifies as a ""good"" response. ",Female,English,Chrome,Windows,1080,1920,6.0064,
2006,default,block2,isabella,ai,0.67,4536,demonstrate,45,demonstrate,C,[],21,Yes,"Very confused about the second part of the survey and what qualifies as a ""good"" response. ",Female,English,Chrome,Windows,1080,1920,6.0064,
2006,default,block2,pizza,ai,0.79,1759,MC,46,MC,MC,[],21,Yes,"Very confused about the second part of the survey and what qualifies as a ""good"" response. ",Female,English,Chrome,Windows,1080,1920,6.0064,
2006,default,block2,hat,ai,0.7,1288,MC,47,MC,MC,[],21,Yes,"Very confused about the second part of the survey and what qualifies as a ""good"" response. ",Female,English,Chrome,Windows,1080,1920,6.0064,
2006,default,block2,jayden,ai,0.77,1415,think,48,think,C,[],21,Yes,"Very confused about the second part of the survey and what qualifies as a ""good"" response. ",Female,English,Chrome,Windows,1080,1920,6.0064,
2006,default,block2,grace,ai,0.93,1833,know,49,know,C,[],21,Yes,"Very confused about the second part of the survey and what qualifies as a ""good"" response. ",Female,English,Chrome,Windows,1080,1920,6.0064,
2006,default,block2,zoe,ai,1,1856,be_right,50,be_right,C,[],21,Yes,"Very confused about the second part of the survey and what qualifies as a ""good"" response. ",Female,English,Chrome,Windows,1080,1920,6.0064,
2006,default,block2,kids,ai,0.95,3032,MC,51,MC,MC,[],21,Yes,"Very confused about the second part of the survey and what qualifies as a ""good"" response. ",Female,English,Chrome,Windows,1080,1920,6.0064,
2006,default,block2,muffins,ai,1,2072,MC,52,MC,MC,[],21,Yes,"Very confused about the second part of the survey and what qualifies as a ""good"" response. ",Female,English,Chrome,Windows,1080,1920,6.0064,
2006,default,block2,olivia,ai,0.82,2416,confess,53,confess,C,[],21,Yes,"Very confused about the second part of the survey and what qualifies as a ""good"" response. ",Female,English,Chrome,Windows,1080,1920,6.0064,
2006,default,block2,josh,ai,0.21,1672,announce,54,announce,C,[],21,Yes,"Very confused about the second part of the survey and what qualifies as a ""good"" response. ",Female,English,Chrome,Windows,1080,1920,6.0064,
2006,default,block2,frank,ai,1,3768,see,55,see,C,[],21,Yes,"Very confused about the second part of the survey and what qualifies as a ""good"" response. ",Female,English,Chrome,Windows,1080,1920,6.0064,
2006,default,block2,emily,ai,0.86,2063,acknowledge,56,acknowledge,C,[],21,Yes,"Very confused about the second part of the survey and what qualifies as a ""good"" response. ",Female,English,Chrome,Windows,1080,1920,6.0064,
2006,default,block2,tony,ai,0.87,1688,establish,57,establish,C,[],21,Yes,"Very confused about the second part of the survey and what qualifies as a ""good"" response. ",Female,English,Chrome,Windows,1080,1920,6.0064,
2045,default,block1,danny,ai,0.86,22167,see,5,see,C,[],34,Yes,"I have no comment for now, when i do, I'll reach out",Male,English,Chrome,Linux,774,360,13.75085,
2045,default,block1,hat,ai,0.9,22503,MC,6,MC,MC,[],34,Yes,"I have no comment for now, when i do, I'll reach out",Male,English,Chrome,Linux,774,360,13.75085,
2045,default,block1,emily,ai,0.74,27842,hear,7,hear,C,[],34,Yes,"I have no comment for now, when i do, I'll reach out",Male,English,Chrome,Linux,774,360,13.75085,
2045,default,block1,mia,ai,0.95,10137,discover,8,discover,C,[],34,Yes,"I have no comment for now, when i do, I'll reach out",Male,English,Chrome,Linux,774,360,13.75085,
2045,default,block1,muffins,ai,0.83,8488,MC,9,MC,MC,[],34,Yes,"I have no comment for now, when i do, I'll reach out",Male,English,Chrome,Linux,774,360,13.75085,
2045,default,block1,tony,ai,0.8,13559,be_annoyed,10,be_annoyed,C,[],34,Yes,"I have no comment for now, when i do, I'll reach out",Male,English,Chrome,Linux,774,360,13.75085,
2045,default,block1,charley,ai,0.81,11817,establish,11,establish,C,[],34,Yes,"I have no comment for now, when i do, I'll reach out",Male,English,Chrome,Linux,774,360,13.75085,
2045,default,block1,jayden,ai,0.74,10794,confess,12,confess,C,[],34,Yes,"I have no comment for now, when i do, I'll reach out",Male,English,Chrome,Linux,774,360,13.75085,
2045,default,block1,mary,ai,0.65,12389,reveal,13,reveal,C,[],34,Yes,"I have no comment for now, when i do, I'll reach out",Male,English,Chrome,Linux,774,360,13.75085,
2045,default,block1,josie,ai,0.81,13809,be_right,14,be_right,C,[],34,Yes,"I have no comment for now, when i do, I'll reach out",Male,English,Chrome,Linux,774,360,13.75085,
2045,default,block1,owen,ai,0.73,12542,inform,15,inform,C,[],34,Yes,"I have no comment for now, when i do, I'll reach out",Male,English,Chrome,Linux,774,360,13.75085,
2045,default,block1,isabella,ai,0.78,6201,announce,16,announce,C,[],34,Yes,"I have no comment for now, when i do, I'll reach out",Male,English,Chrome,Linux,774,360,13.75085,
2045,default,block1,pizza,ai,0.75,9518,MC,17,MC,MC,[],34,Yes,"I have no comment for now, when i do, I'll reach out",Male,English,Chrome,Linux,774,360,13.75085,
2045,default,block1,emma,ai,0.74,9949,confirm,18,confirm,C,[],34,Yes,"I have no comment for now, when i do, I'll reach out",Male,English,Chrome,Linux,774,360,13.75085,
2045,default,block1,jon,ai,0.74,8780,know,19,know,C,[],34,Yes,"I have no comment for now, when i do, I'll reach out",Male,English,Chrome,Linux,774,360,13.75085,
2045,default,block1,josh,ai,0.76,10206,demonstrate,20,demonstrate,C,[],34,Yes,"I have no comment for now, when i do, I'll reach out",Male,English,Chrome,Linux,774,360,13.75085,
