workerid,proliferate.condition.x,block,content,question_type,response,rt,short_trigger,slide_number_in_experiment,trigger,trigger_class,error.x,proliferate.condition.y,age,american,comments,gender,language,error.y,trial
2920,default,block1,emma,projective,0,23106,say,5,say,C,NA,default,19,Yes,NA,Female,English,NA,1
2920,default,block1,mary,projective,0.01,6966,pretend,6,pretend,C,NA,default,19,Yes,NA,Female,English,NA,2
2920,default,block1,jon,projective,0.01,6777,demonstrate,7,demonstrate,C,NA,default,19,Yes,NA,Female,English,NA,3
2920,default,block1,owen,projective,0.02,5894,hear,8,hear,C,NA,default,19,Yes,NA,Female,English,NA,4
2920,default,block1,ballet,projective,0.97,7146,MC,9,MC,MC,NA,default,19,Yes,NA,Female,English,NA,5
2920,default,block1,jackson,projective,0.01,3067,see,10,see,C,NA,default,19,Yes,NA,Female,English,NA,6
2920,default,block1,julian,projective,0.01,3083,confirm,11,confirm,C,NA,default,19,Yes,NA,Female,English,NA,7
2920,default,block1,mia,projective,0,5163,establish,12,establish,C,NA,default,19,Yes,NA,Female,English,NA,8
2920,default,block1,hat,projective,1,12668,MC,13,MC,MC,NA,default,19,Yes,NA,Female,English,NA,9
2920,default,block1,emily,projective,0,2729,confess,14,confess,C,NA,default,19,Yes,NA,Female,English,NA,10
2920,default,block1,zoe,projective,0,4923,be_annoyed,15,be_annoyed,C,NA,default,19,Yes,NA,Female,English,NA,11
2920,default,block1,tony,projective,0,3099,admit,16,admit,C,NA,default,19,Yes,NA,Female,English,NA,12
2920,default,block1,jayden,projective,0,4200,acknowledge,17,acknowledge,C,NA,default,19,Yes,NA,Female,English,NA,13
2920,default,block1,kids,projective,1,5200,MC,18,MC,MC,NA,default,19,Yes,NA,Female,English,NA,14
2920,default,block1,olivia,projective,0,2604,suggest,19,suggest,C,NA,default,19,Yes,NA,Female,English,NA,15
2920,default,block1,pizza,projective,1,5096,MC,20,MC,MC,NA,default,19,Yes,NA,Female,English,NA,16
2920,default,block1,muffins,projective,1,4883,MC,21,MC,MC,NA,default,19,Yes,NA,Female,English,NA,17
2920,default,block1,sophia,projective,0,4662,prove,22,prove,C,NA,default,19,Yes,NA,Female,English,NA,18
2920,default,block1,charley,projective,0,2770,think,23,think,C,NA,default,19,Yes,NA,Female,English,NA,19
2920,default,block1,garage,projective,1,3846,MC,24,MC,MC,NA,default,19,Yes,NA,Female,English,NA,20
2920,default,block1,isabella,projective,0,2915,inform,25,inform,C,NA,default,19,Yes,NA,Female,English,NA,21
2920,default,block1,josie,projective,0,2961,reveal,26,reveal,C,NA,default,19,Yes,NA,Female,English,NA,22
2920,default,block1,frank,projective,0,7813,know,27,know,C,NA,default,19,Yes,NA,Female,English,NA,23
2920,default,block1,josh,projective,0,8977,be_right,28,be_right,C,NA,default,19,Yes,NA,Female,English,NA,24
2920,default,block1,danny,projective,0,3131,discover,29,discover,C,NA,default,19,Yes,NA,Female,English,NA,25
2920,default,block1,grace,projective,0,3589,announce,30,announce,C,NA,default,19,Yes,NA,Female,English,NA,26
2920,default,block2,josh,ai,1,16391,be_right,32,be_right,C,NA,default,19,Yes,NA,Female,English,NA,27
2920,default,block2,mary,ai,1,13481,pretend,33,pretend,C,NA,default,19,Yes,NA,Female,English,NA,28
2920,default,block2,pizza,ai,0.28,16425,MC,34,MC,MC,NA,default,19,Yes,NA,Female,English,NA,29
2920,default,block2,hat,ai,0.25,18171,MC,35,MC,MC,NA,default,19,Yes,NA,Female,English,NA,30
2920,default,block2,danny,ai,0.79,18677,discover,36,discover,C,NA,default,19,Yes,NA,Female,English,NA,31
2920,default,block2,jayden,ai,0.8,15024,acknowledge,37,acknowledge,C,NA,default,19,Yes,NA,Female,English,NA,32
2920,default,block2,kids,ai,0.25,9452,MC,38,MC,MC,NA,default,19,Yes,NA,Female,English,NA,33
2920,default,block2,grace,ai,0.86,8165,announce,39,announce,C,NA,default,19,Yes,NA,Female,English,NA,34
2920,default,block2,frank,ai,0.92,8485,know,40,know,C,NA,default,19,Yes,NA,Female,English,NA,35
2920,default,block2,julian,ai,0.89,8192,confirm,41,confirm,C,NA,default,19,Yes,NA,Female,English,NA,36
2920,default,block2,emily,ai,0.9,5636,confess,42,confess,C,NA,default,19,Yes,NA,Female,English,NA,37
2920,default,block2,josie,ai,0.88,7042,reveal,43,reveal,C,NA,default,19,Yes,NA,Female,English,NA,38
2920,default,block2,isabella,ai,0.91,5299,inform,44,inform,C,NA,default,19,Yes,NA,Female,English,NA,39
2920,default,block2,owen,ai,0.89,6721,hear,45,hear,C,NA,default,19,Yes,NA,Female,English,NA,40
2920,default,block2,muffins,ai,0.18999999999999995,7716,MC,46,MC,MC,NA,default,19,Yes,NA,Female,English,NA,41
2920,default,block2,mia,ai,0.95,6166,establish,47,establish,C,NA,default,19,Yes,NA,Female,English,NA,42
2920,default,block2,olivia,ai,0.9,4128,suggest,48,suggest,C,NA,default,19,Yes,NA,Female,English,NA,43
2920,default,block2,garage,ai,0.17000000000000004,7018,MC,49,MC,MC,NA,default,19,Yes,NA,Female,English,NA,44
2920,default,block2,charley,ai,0.89,5797,think,50,think,C,NA,default,19,Yes,NA,Female,English,NA,45
2920,default,block2,zoe,ai,0.91,6930,be_annoyed,51,be_annoyed,C,NA,default,19,Yes,NA,Female,English,NA,46
2920,default,block2,tony,ai,0.97,6800,admit,52,admit,C,NA,default,19,Yes,NA,Female,English,NA,47
2920,default,block2,jackson,ai,0.95,4441,see,53,see,C,NA,default,19,Yes,NA,Female,English,NA,48
2920,default,block2,jon,ai,0.96,8150,demonstrate,54,demonstrate,C,NA,default,19,Yes,NA,Female,English,NA,49
2920,default,block2,sophia,ai,0.9299999999999999,3548,prove,55,prove,C,NA,default,19,Yes,NA,Female,English,NA,50
2920,default,block2,emma,ai,0.92,3534,say,56,say,C,NA,default,19,Yes,NA,Female,English,NA,51
2920,default,block2,ballet,ai,0.27,11698,MC,57,MC,MC,NA,default,19,Yes,NA,Female,English,NA,52
3051,default,block1,zoe,projective,0.99,14384,inform,5,inform,C,NA,default,24,Yes,NA,Female,english,NA,1
3051,default,block1,mia,projective,0.98,8327,discover,6,discover,C,NA,default,24,Yes,NA,Female,english,NA,2
3051,default,block1,jon,projective,0.98,8520,demonstrate,7,demonstrate,C,NA,default,24,Yes,NA,Female,english,NA,3
3051,default,block1,isabella,projective,0.5,10016,think,8,think,C,NA,default,24,Yes,NA,Female,english,NA,4
3051,default,block1,sophia,projective,0.8,8208,confirm,9,confirm,C,NA,default,24,Yes,NA,Female,english,NA,5
3051,default,block1,frank,projective,0.98,4728,know,10,know,C,NA,default,24,Yes,NA,Female,english,NA,6
3051,default,block1,jackson,projective,0.78,7360,establish,11,establish,C,NA,default,24,Yes,NA,Female,english,NA,7
3051,default,block1,muffins,projective,1,6520,MC,12,MC,MC,NA,default,24,Yes,NA,Female,english,NA,8
3051,default,block1,grace,projective,0.78,10136,admit,13,admit,C,NA,default,24,Yes,NA,Female,english,NA,9
3051,default,block1,ballet,projective,1,4344,MC,14,MC,MC,NA,default,24,Yes,NA,Female,english,NA,10
3051,default,block1,mary,projective,0.26,5720,suggest,15,suggest,C,NA,default,24,Yes,NA,Female,english,NA,11
3051,default,block1,owen,projective,0.25,5511,see,16,see,C,NA,default,24,Yes,NA,Female,english,NA,12
3051,default,block1,garage,projective,0.96,5904,MC,17,MC,MC,NA,default,24,Yes,NA,Female,english,NA,13
3051,default,block1,tony,projective,0.67,4688,confess,18,confess,C,NA,default,24,Yes,NA,Female,english,NA,14
3051,default,block1,charley,projective,0.67,7592,reveal,19,reveal,C,NA,default,24,Yes,NA,Female,english,NA,15
3051,default,block1,jayden,projective,0.76,6656,prove,20,prove,C,NA,default,24,Yes,NA,Female,english,NA,16
3051,default,block1,emma,projective,0.7,10128,acknowledge,21,acknowledge,C,NA,default,24,Yes,NA,Female,english,NA,17
3051,default,block1,kids,projective,0.99,4024,MC,22,MC,MC,NA,default,24,Yes,NA,Female,english,NA,18
3051,default,block1,josh,projective,0.33,5752,be_right,23,be_right,C,NA,default,24,Yes,NA,Female,english,NA,19
3051,default,block1,olivia,projective,0.5,7040,announce,24,announce,C,NA,default,24,Yes,NA,Female,english,NA,20
3051,default,block1,danny,projective,0.87,5360,be_annoyed,25,be_annoyed,C,NA,default,24,Yes,NA,Female,english,NA,21
3051,default,block1,hat,projective,0.99,4256,MC,26,MC,MC,NA,default,24,Yes,NA,Female,english,NA,22
3051,default,block1,julian,projective,0.22,5936,say,27,say,C,NA,default,24,Yes,NA,Female,english,NA,23
3051,default,block1,emily,projective,0.18,6360,hear,28,hear,C,NA,default,24,Yes,NA,Female,english,NA,24
3051,default,block1,josie,projective,0.02,8856,pretend,29,pretend,C,NA,default,24,Yes,NA,Female,english,NA,25
3051,default,block1,pizza,projective,0.98,3952,MC,30,MC,MC,NA,default,24,Yes,NA,Female,english,NA,26
3051,default,block2,frank,ai,0.52,19003,know,32,know,C,NA,default,24,Yes,NA,Female,english,NA,27
3051,default,block2,emma,ai,0.21999999999999997,10248,acknowledge,33,acknowledge,C,NA,default,24,Yes,NA,Female,english,NA,28
3051,default,block2,hat,ai,0.27,8328,MC,34,MC,MC,NA,default,24,Yes,NA,Female,english,NA,29
3051,default,block2,danny,ai,0.06000000000000005,7272,be_annoyed,35,be_annoyed,C,NA,default,24,Yes,NA,Female,english,NA,30
3051,default,block2,jayden,ai,0.53,6688,prove,36,prove,C,NA,default,24,Yes,NA,Female,english,NA,31
3051,default,block2,charley,ai,0.28,8408,reveal,37,reveal,C,NA,default,24,Yes,NA,Female,english,NA,32
3051,default,block2,ballet,ai,0,5777,MC,38,MC,MC,NA,default,24,Yes,NA,Female,english,NA,33
3051,default,block2,julian,ai,0.050000000000000044,8952,say,39,say,C,NA,default,24,Yes,NA,Female,english,NA,34
3051,default,block2,garage,ai,0.020000000000000018,4656,MC,40,MC,MC,NA,default,24,Yes,NA,Female,english,NA,35
3051,default,block2,owen,ai,0.52,6520,see,41,see,C,NA,default,24,Yes,NA,Female,english,NA,36
3051,default,block2,muffins,ai,0.010000000000000009,4864,MC,42,MC,MC,NA,default,24,Yes,NA,Female,english,NA,37
3051,default,block2,jon,ai,0.5800000000000001,8256,demonstrate,43,demonstrate,C,NA,default,24,Yes,NA,Female,english,NA,38
3051,default,block2,tony,ai,0.4,5352,confess,44,confess,C,NA,default,24,Yes,NA,Female,english,NA,39
3051,default,block2,sophia,ai,0.18000000000000005,6352,confirm,45,confirm,C,NA,default,24,Yes,NA,Female,english,NA,40
3051,default,block2,mia,ai,0.21999999999999997,5424,discover,46,discover,C,NA,default,24,Yes,NA,Female,english,NA,41
3051,default,block2,pizza,ai,0.37,6904,MC,47,MC,MC,NA,default,24,Yes,NA,Female,english,NA,42
3051,default,block2,isabella,ai,0,8727,think,48,think,C,NA,default,24,Yes,NA,Female,english,NA,43
3051,default,block2,josie,ai,0.31999999999999995,8311,pretend,49,pretend,C,NA,default,24,Yes,NA,Female,english,NA,44
3051,default,block2,jackson,ai,0.18000000000000005,7007,establish,50,establish,C,NA,default,24,Yes,NA,Female,english,NA,45
3051,default,block2,olivia,ai,0.17000000000000004,4000,announce,51,announce,C,NA,default,24,Yes,NA,Female,english,NA,46
3051,default,block2,mary,ai,0.20999999999999996,4480,suggest,52,suggest,C,NA,default,24,Yes,NA,Female,english,NA,47
3051,default,block2,kids,ai,0.26,5993,MC,53,MC,MC,NA,default,24,Yes,NA,Female,english,NA,48
3051,default,block2,zoe,ai,0.25,14975,inform,54,inform,C,NA,default,24,Yes,NA,Female,english,NA,49
3051,default,block2,emily,ai,0.16000000000000003,5592,hear,55,hear,C,NA,default,24,Yes,NA,Female,english,NA,50
3051,default,block2,josh,ai,0.51,7851,be_right,56,be_right,C,NA,default,24,Yes,NA,Female,english,NA,51
3051,default,block2,grace,ai,0.20999999999999996,5216,admit,57,admit,C,NA,default,24,Yes,NA,Female,english,NA,52
3020,default,block1,muffins,projective,1,10013,MC,5,MC,MC,NA,default,23,Yes,NA,Female,English,NA,1
3020,default,block1,pizza,projective,1,5353,MC,6,MC,MC,NA,default,23,Yes,NA,Female,English,NA,2
3020,default,block1,owen,projective,0,13513,confess,7,confess,C,NA,default,23,Yes,NA,Female,English,NA,3
3020,default,block1,jayden,projective,0,4712,demonstrate,8,demonstrate,C,NA,default,23,Yes,NA,Female,English,NA,4
3020,default,block1,frank,projective,1,8505,know,9,know,C,NA,default,23,Yes,NA,Female,English,NA,5
3020,default,block1,olivia,projective,1,9474,acknowledge,10,acknowledge,C,NA,default,23,Yes,NA,Female,English,NA,6
3020,default,block1,grace,projective,0,4927,be_right,11,be_right,C,NA,default,23,Yes,NA,Female,English,NA,7
3020,default,block1,julian,projective,0,11813,pretend,12,pretend,C,NA,default,23,Yes,NA,Female,English,NA,8
3020,default,block1,isabella,projective,0,8554,prove,13,prove,C,NA,default,23,Yes,NA,Female,English,NA,9
3020,default,block1,mia,projective,1,4872,reveal,14,reveal,C,NA,default,23,Yes,NA,Female,English,NA,10
3020,default,block1,danny,projective,1,6461,announce,15,announce,C,NA,default,23,Yes,NA,Female,English,NA,11
3020,default,block1,emily,projective,0,5405,say,16,say,C,NA,default,23,Yes,NA,Female,English,NA,12
3020,default,block1,jon,projective,0,5996,confirm,17,confirm,C,NA,default,23,Yes,NA,Female,English,NA,13
3020,default,block1,mary,projective,0,8569,admit,18,admit,C,NA,default,23,Yes,NA,Female,English,NA,14
3020,default,block1,kids,projective,1,7461,MC,19,MC,MC,NA,default,23,Yes,NA,Female,English,NA,15
3020,default,block1,charley,projective,0,12514,establish,20,establish,C,NA,default,23,Yes,NA,Female,English,NA,16
3020,default,block1,josh,projective,1,7699,inform,21,inform,C,NA,default,23,Yes,NA,Female,English,NA,17
3020,default,block1,jackson,projective,1,4224,hear,22,hear,C,NA,default,23,Yes,NA,Female,English,NA,18
3020,default,block1,ballet,projective,1,4612,MC,23,MC,MC,NA,default,23,Yes,NA,Female,English,NA,19
3020,default,block1,tony,projective,0,6078,suggest,24,suggest,C,NA,default,23,Yes,NA,Female,English,NA,20
3020,default,block1,emma,projective,1,8174,see,25,see,C,NA,default,23,Yes,NA,Female,English,NA,21
3020,default,block1,zoe,projective,0,10449,think,26,think,C,NA,default,23,Yes,NA,Female,English,NA,22
3020,default,block1,hat,projective,1,5225,MC,27,MC,MC,NA,default,23,Yes,NA,Female,English,NA,23
3020,default,block1,sophia,projective,1,5357,be_annoyed,28,be_annoyed,C,NA,default,23,Yes,NA,Female,English,NA,24
3020,default,block1,josie,projective,1,6520,discover,29,discover,C,NA,default,23,Yes,NA,Female,English,NA,25
3020,default,block1,garage,projective,1,6069,MC,30,MC,MC,NA,default,23,Yes,NA,Female,English,NA,26
3020,default,block2,hat,ai,0,15213,MC,32,MC,MC,NA,default,23,Yes,NA,Female,English,NA,27
3020,default,block2,frank,ai,0,13492,know,33,know,C,NA,default,23,Yes,NA,Female,English,NA,28
3020,default,block2,olivia,ai,0,5545,acknowledge,34,acknowledge,C,NA,default,23,Yes,NA,Female,English,NA,29
3020,default,block2,josie,ai,0,6510,discover,35,discover,C,NA,default,23,Yes,NA,Female,English,NA,30
3020,default,block2,kids,ai,1,5054,MC,36,MC,MC,NA,default,23,Yes,NA,Female,English,NA,31
3020,default,block2,garage,ai,1,5993,MC,37,MC,MC,NA,default,23,Yes,NA,Female,English,NA,32
3020,default,block2,emily,ai,0,7100,say,38,say,C,NA,default,23,Yes,NA,Female,English,NA,33
3020,default,block2,josh,ai,0,8744,inform,39,inform,C,NA,default,23,Yes,NA,Female,English,NA,34
3020,default,block2,pizza,ai,1,5254,MC,40,MC,MC,NA,default,23,Yes,NA,Female,English,NA,35
3020,default,block2,grace,ai,0,12693,be_right,41,be_right,C,NA,default,23,Yes,NA,Female,English,NA,36
3020,default,block2,isabella,ai,0,7761,prove,42,prove,C,NA,default,23,Yes,NA,Female,English,NA,37
3020,default,block2,jackson,ai,0,6762,hear,43,hear,C,NA,default,23,Yes,NA,Female,English,NA,38
3020,default,block2,sophia,ai,0,7063,be_annoyed,44,be_annoyed,C,NA,default,23,Yes,NA,Female,English,NA,39
3020,default,block2,danny,ai,0,6831,announce,45,announce,C,NA,default,23,Yes,NA,Female,English,NA,40
3020,default,block2,jayden,ai,0,8444,demonstrate,46,demonstrate,C,NA,default,23,Yes,NA,Female,English,NA,41
3020,default,block2,muffins,ai,1,5438,MC,47,MC,MC,NA,default,23,Yes,NA,Female,English,NA,42
3020,default,block2,mary,ai,0,4256,admit,48,admit,C,NA,default,23,Yes,NA,Female,English,NA,43
3020,default,block2,tony,ai,0,8328,suggest,49,suggest,C,NA,default,23,Yes,NA,Female,English,NA,44
3020,default,block2,owen,ai,0,6118,confess,50,confess,C,NA,default,23,Yes,NA,Female,English,NA,45
3020,default,block2,jon,ai,0,5316,confirm,51,confirm,C,NA,default,23,Yes,NA,Female,English,NA,46
3020,default,block2,emma,ai,0,9511,see,52,see,C,NA,default,23,Yes,NA,Female,English,NA,47
3020,default,block2,mia,ai,0,6810,reveal,53,reveal,C,NA,default,23,Yes,NA,Female,English,NA,48
3020,default,block2,charley,ai,0,7064,establish,54,establish,C,NA,default,23,Yes,NA,Female,English,NA,49
3020,default,block2,zoe,ai,1,8472,think,55,think,C,NA,default,23,Yes,NA,Female,English,NA,50
3020,default,block2,ballet,ai,1,3256,MC,56,MC,MC,NA,default,23,Yes,NA,Female,English,NA,51
3020,default,block2,julian,ai,0,5338,pretend,57,pretend,C,NA,default,23,Yes,NA,Female,English,NA,52
2848,default,block1,grace,projective,0,17221,think,5,think,C,NA,default,18,Yes,NA,Male,English,NA,1
2848,default,block1,mia,projective,0.24,13622,say,6,say,C,NA,default,18,Yes,NA,Male,English,NA,2
2848,default,block1,jackson,projective,0.02,7253,suggest,7,suggest,C,NA,default,18,Yes,NA,Male,English,NA,3
2848,default,block1,tony,projective,0.97,8226,be_annoyed,8,be_annoyed,C,NA,default,18,Yes,NA,Male,English,NA,4
2848,default,block1,josh,projective,0.98,8623,discover,9,discover,C,NA,default,18,Yes,NA,Male,English,NA,5
2848,default,block1,jayden,projective,0.61,15063,demonstrate,10,demonstrate,C,NA,default,18,Yes,NA,Male,English,NA,6
2848,default,block1,zoe,projective,0.97,13943,inform,11,inform,C,NA,default,18,Yes,NA,Male,English,NA,7
2848,default,block1,isabella,projective,0.97,9839,admit,12,admit,C,NA,default,18,Yes,NA,Male,English,NA,8
2848,default,block1,julian,projective,0.07,7511,be_right,13,be_right,C,NA,default,18,Yes,NA,Male,English,NA,9
2848,default,block1,owen,projective,0.44,11452,see,14,see,C,NA,default,18,Yes,NA,Male,English,NA,10
2848,default,block1,danny,projective,0.24,8662,confirm,15,confirm,C,NA,default,18,Yes,NA,Male,English,NA,11
2848,default,block1,garage,projective,0.99,8619,MC,16,MC,MC,NA,default,18,Yes,NA,Male,English,NA,12
2848,default,block1,charley,projective,0.24,8817,announce,17,announce,C,NA,default,18,Yes,NA,Male,English,NA,13
2848,default,block1,jon,projective,0.93,6745,prove,18,prove,C,NA,default,18,Yes,NA,Male,English,NA,14
2848,default,block1,olivia,projective,0.26,6089,pretend,19,pretend,C,NA,default,18,Yes,NA,Male,English,NA,15
2848,default,block1,emily,projective,0.31,10194,establish,20,establish,C,NA,default,18,Yes,NA,Male,English,NA,16
2848,default,block1,mary,projective,0.19,5909,acknowledge,21,acknowledge,C,NA,default,18,Yes,NA,Male,English,NA,17
2848,default,block1,frank,projective,0.24,4421,know,22,know,C,NA,default,18,Yes,NA,Male,English,NA,18
2848,default,block1,kids,projective,0.96,5304,MC,23,MC,MC,NA,default,18,Yes,NA,Male,English,NA,19
2848,default,block1,sophia,projective,0.17,6120,hear,24,hear,C,NA,default,18,Yes,NA,Male,English,NA,20
2848,default,block1,muffins,projective,0.95,6325,MC,25,MC,MC,NA,default,18,Yes,NA,Male,English,NA,21
2848,default,block1,hat,projective,0.97,5583,MC,26,MC,MC,NA,default,18,Yes,NA,Male,English,NA,22
2848,default,block1,pizza,projective,0.95,6632,MC,27,MC,MC,NA,default,18,Yes,NA,Male,English,NA,23
2848,default,block1,josie,projective,0.01,7207,reveal,28,reveal,C,NA,default,18,Yes,NA,Male,English,NA,24
2848,default,block1,ballet,projective,0.97,10451,MC,29,MC,MC,NA,default,18,Yes,NA,Male,English,NA,25
2848,default,block1,emma,projective,0.15,3932,confess,30,confess,C,NA,default,18,Yes,NA,Male,English,NA,26
2848,default,block2,olivia,ai,0.37,25343,pretend,32,pretend,C,NA,default,18,Yes,NA,Male,English,NA,27
2848,default,block2,kids,ai,0.96,8782,MC,33,MC,MC,NA,default,18,Yes,NA,Male,English,NA,28
2848,default,block2,hat,ai,0.55,9149,MC,34,MC,MC,NA,default,18,Yes,NA,Male,English,NA,29
2848,default,block2,emily,ai,0.020000000000000018,5871,establish,35,establish,C,NA,default,18,Yes,NA,Male,English,NA,30
2848,default,block2,jackson,ai,0.98,5931,suggest,36,suggest,C,NA,default,18,Yes,NA,Male,English,NA,31
2848,default,block2,grace,ai,0.010000000000000009,6755,think,37,think,C,NA,default,18,Yes,NA,Male,English,NA,32
2848,default,block2,ballet,ai,0.99,6217,MC,38,MC,MC,NA,default,18,Yes,NA,Male,English,NA,33
2848,default,block2,mia,ai,0.050000000000000044,7975,say,39,say,C,NA,default,18,Yes,NA,Male,English,NA,34
2848,default,block2,sophia,ai,0.9,8486,hear,40,hear,C,NA,default,18,Yes,NA,Male,English,NA,35
2848,default,block2,jon,ai,0.43000000000000005,11802,prove,41,prove,C,NA,default,18,Yes,NA,Male,English,NA,36
2848,default,block2,jayden,ai,0.30000000000000004,10202,demonstrate,42,demonstrate,C,NA,default,18,Yes,NA,Male,English,NA,37
2848,default,block2,tony,ai,0.86,6693,be_annoyed,43,be_annoyed,C,NA,default,18,Yes,NA,Male,English,NA,38
2848,default,block2,owen,ai,0.76,7659,see,44,see,C,NA,default,18,Yes,NA,Male,English,NA,39
2848,default,block2,frank,ai,0.79,6116,know,45,know,C,NA,default,18,Yes,NA,Male,English,NA,40
2848,default,block2,garage,ai,0.010000000000000009,7672,MC,46,MC,MC,NA,default,18,Yes,NA,Male,English,NA,41
2848,default,block2,charley,ai,0.8200000000000001,7159,announce,47,announce,C,NA,default,18,Yes,NA,Male,English,NA,42
2848,default,block2,isabella,ai,0.18000000000000005,9412,admit,48,admit,C,NA,default,18,Yes,NA,Male,English,NA,43
2848,default,block2,emma,ai,0.24,7206,confess,49,confess,C,NA,default,18,Yes,NA,Male,English,NA,44
2848,default,block2,muffins,ai,0.77,3843,MC,50,MC,MC,NA,default,18,Yes,NA,Male,English,NA,45
2848,default,block2,julian,ai,0.38,8933,be_right,51,be_right,C,NA,default,18,Yes,NA,Male,English,NA,46
2848,default,block2,mary,ai,0.74,5560,acknowledge,52,acknowledge,C,NA,default,18,Yes,NA,Male,English,NA,47
2848,default,block2,danny,ai,0.25,7000,confirm,53,confirm,C,NA,default,18,Yes,NA,Male,English,NA,48
2848,default,block2,josie,ai,0.8200000000000001,5567,reveal,54,reveal,C,NA,default,18,Yes,NA,Male,English,NA,49
2848,default,block2,pizza,ai,0.86,6887,MC,55,MC,MC,NA,default,18,Yes,NA,Male,English,NA,50
2848,default,block2,josh,ai,0.63,15173,discover,56,discover,C,NA,default,18,Yes,NA,Male,English,NA,51
2848,default,block2,zoe,ai,0.6799999999999999,8833,inform,57,inform,C,NA,default,18,Yes,NA,Male,English,NA,52
2852,default,block1,olivia,projective,0.57,17460,reveal,5,reveal,C,NA,default,20,Yes,NA,Female,English,NA,1
2852,default,block1,ballet,projective,1,7027,MC,6,MC,MC,NA,default,20,Yes,NA,Female,English,NA,2
2852,default,block1,garage,projective,0.96,10006,MC,7,MC,MC,NA,default,20,Yes,NA,Female,English,NA,3
2852,default,block1,emma,projective,0.13,9255,be_right,8,be_right,C,NA,default,20,Yes,NA,Female,English,NA,4
2852,default,block1,josh,projective,0.53,19442,confess,9,confess,C,NA,default,20,Yes,NA,Female,English,NA,5
2852,default,block1,jon,projective,0.02,5781,hear,10,hear,C,NA,default,20,Yes,NA,Female,English,NA,6
2852,default,block1,emily,projective,0.72,9224,inform,11,inform,C,NA,default,20,Yes,NA,Female,English,NA,7
2852,default,block1,pizza,projective,1,5731,MC,12,MC,MC,NA,default,20,Yes,NA,Female,English,NA,8
2852,default,block1,hat,projective,1,4221,MC,13,MC,MC,NA,default,20,Yes,NA,Female,English,NA,9
2852,default,block1,frank,projective,0.74,6541,see,14,see,C,NA,default,20,Yes,NA,Female,English,NA,10
2852,default,block1,charley,projective,0.57,6072,say,15,say,C,NA,default,20,Yes,NA,Female,English,NA,11
2852,default,block1,kids,projective,1,6563,MC,16,MC,MC,NA,default,20,Yes,NA,Female,English,NA,12
2852,default,block1,jackson,projective,0.29,5336,prove,17,prove,C,NA,default,20,Yes,NA,Female,English,NA,13
2852,default,block1,muffins,projective,1,4337,MC,18,MC,MC,NA,default,20,Yes,NA,Female,English,NA,14
2852,default,block1,julian,projective,0.05,6870,think,19,think,C,NA,default,20,Yes,NA,Female,English,NA,15
2852,default,block1,grace,projective,0,33069,pretend,20,pretend,C,NA,default,20,Yes,NA,Female,English,NA,16
2852,default,block1,sophia,projective,0.94,5764,discover,21,discover,C,NA,default,20,Yes,NA,Female,English,NA,17
2852,default,block1,josie,projective,0.93,8437,be_annoyed,22,be_annoyed,C,NA,default,20,Yes,NA,Female,English,NA,18
2852,default,block1,danny,projective,0.08,6525,demonstrate,23,demonstrate,C,NA,default,20,Yes,NA,Female,English,NA,19
2852,default,block1,tony,projective,0.77,6456,acknowledge,24,acknowledge,C,NA,default,20,Yes,NA,Female,English,NA,20
2852,default,block1,mary,projective,0.07,7627,suggest,25,suggest,C,NA,default,20,Yes,NA,Female,English,NA,21
2852,default,block1,zoe,projective,0.48,6605,know,26,know,C,NA,default,20,Yes,NA,Female,English,NA,22
2852,default,block1,isabella,projective,0.72,6824,admit,27,admit,C,NA,default,20,Yes,NA,Female,English,NA,23
2852,default,block1,mia,projective,0.58,8803,establish,28,establish,C,NA,default,20,Yes,NA,Female,English,NA,24
2852,default,block1,owen,projective,0.62,5549,announce,29,announce,C,NA,default,20,Yes,NA,Female,English,NA,25
2852,default,block1,jayden,projective,0.52,6541,confirm,30,confirm,C,NA,default,20,Yes,NA,Female,English,NA,26
2852,default,block2,olivia,ai,0.97,10481,reveal,32,reveal,C,NA,default,20,Yes,NA,Female,English,NA,27
2852,default,block2,jon,ai,0.41000000000000003,15093,hear,33,hear,C,NA,default,20,Yes,NA,Female,English,NA,28
2852,default,block2,zoe,ai,0.78,10582,know,34,know,C,NA,default,20,Yes,NA,Female,English,NA,29
2852,default,block2,jayden,ai,0.26,6742,confirm,35,confirm,C,NA,default,20,Yes,NA,Female,English,NA,30
2852,default,block2,frank,ai,0.29000000000000004,6166,see,36,see,C,NA,default,20,Yes,NA,Female,English,NA,31
2852,default,block2,josh,ai,0.6699999999999999,4592,confess,37,confess,C,NA,default,20,Yes,NA,Female,English,NA,32
2852,default,block2,mia,ai,0.35,12024,establish,38,establish,C,NA,default,20,Yes,NA,Female,English,NA,33
2852,default,block2,julian,ai,0.53,9230,think,39,think,C,NA,default,20,Yes,NA,Female,English,NA,34
2852,default,block2,muffins,ai,0.42000000000000004,43083,MC,40,MC,MC,NA,default,20,Yes,NA,Female,English,NA,35
2852,default,block2,charley,ai,0.39,11612,say,41,say,C,NA,default,20,Yes,NA,Female,English,NA,36
2852,default,block2,mary,ai,0.41000000000000003,5731,suggest,42,suggest,C,NA,default,20,Yes,NA,Female,English,NA,37
2852,default,block2,kids,ai,0.97,12191,MC,43,MC,MC,NA,default,20,Yes,NA,Female,English,NA,38
2852,default,block2,josie,ai,0.75,6455,be_annoyed,44,be_annoyed,C,NA,default,20,Yes,NA,Female,English,NA,39
2852,default,block2,grace,ai,0.6699999999999999,6427,pretend,45,pretend,C,NA,default,20,Yes,NA,Female,English,NA,40
2852,default,block2,emily,ai,0.32999999999999996,7881,inform,46,inform,C,NA,default,20,Yes,NA,Female,English,NA,41
2852,default,block2,ballet,ai,0.43999999999999995,12015,MC,47,MC,MC,NA,default,20,Yes,NA,Female,English,NA,42
2852,default,block2,hat,ai,0.5900000000000001,15998,MC,48,MC,MC,NA,default,20,Yes,NA,Female,English,NA,43
2852,default,block2,emma,ai,0.85,8280,be_right,49,be_right,C,NA,default,20,Yes,NA,Female,English,NA,44
2852,default,block2,isabella,ai,0.7,10863,admit,50,admit,C,NA,default,20,Yes,NA,Female,English,NA,45
2852,default,block2,tony,ai,0.64,17895,acknowledge,51,acknowledge,C,NA,default,20,Yes,NA,Female,English,NA,46
2852,default,block2,danny,ai,0.41000000000000003,4784,demonstrate,52,demonstrate,C,NA,default,20,Yes,NA,Female,English,NA,47
2852,default,block2,sophia,ai,0.81,15226,discover,53,discover,C,NA,default,20,Yes,NA,Female,English,NA,48
2852,default,block2,jackson,ai,0.45999999999999996,24946,prove,54,prove,C,NA,default,20,Yes,NA,Female,English,NA,49
2852,default,block2,garage,ai,0.38,4718,MC,55,MC,MC,NA,default,20,Yes,NA,Female,English,NA,50
2852,default,block2,pizza,ai,0.5800000000000001,14946,MC,56,MC,MC,NA,default,20,Yes,NA,Female,English,NA,51
2852,default,block2,owen,ai,0.65,6559,announce,57,announce,C,NA,default,20,Yes,NA,Female,English,NA,52
2999,default,block1,charley,projective,0,38964,establish,5,establish,C,NA,default,39,Yes,Thanks,Male,English,NA,1
2999,default,block1,josie,projective,0.01,31816,announce,6,announce,C,NA,default,39,Yes,Thanks,Male,English,NA,2
2999,default,block1,sophia,projective,0.02,20069,see,7,see,C,NA,default,39,Yes,Thanks,Male,English,NA,3
2999,default,block1,hat,projective,0.96,11998,MC,8,MC,MC,NA,default,39,Yes,Thanks,Male,English,NA,4
2999,default,block1,garage,projective,0.96,24211,MC,9,MC,MC,NA,default,39,Yes,Thanks,Male,English,NA,5
2999,default,block1,grace,projective,0.06,122700,inform,10,inform,C,NA,default,39,Yes,Thanks,Male,English,NA,6
2999,default,block1,zoe,projective,0.03,14543,hear,11,hear,C,NA,default,39,Yes,Thanks,Male,English,NA,7
2999,default,block1,isabella,projective,0.01,8356,reveal,12,reveal,C,NA,default,39,Yes,Thanks,Male,English,NA,8
2999,default,block1,mia,projective,0.91,16154,be_annoyed,13,be_annoyed,C,NA,default,39,Yes,Thanks,Male,English,NA,9
2999,default,block1,jackson,projective,0.79,10539,demonstrate,14,demonstrate,C,NA,default,39,Yes,Thanks,Male,English,NA,10
2999,default,block1,pizza,projective,0.99,14846,MC,15,MC,MC,NA,default,39,Yes,Thanks,Male,English,NA,11
2999,default,block1,jon,projective,0.02,8346,pretend,16,pretend,C,NA,default,39,Yes,Thanks,Male,English,NA,12
2999,default,block1,muffins,projective,0.97,8600,MC,17,MC,MC,NA,default,39,Yes,Thanks,Male,English,NA,13
2999,default,block1,owen,projective,0.03,34655,admit,18,admit,C,NA,default,39,Yes,Thanks,Male,English,NA,14
2999,default,block1,mary,projective,0.78,17654,prove,19,prove,C,NA,default,39,Yes,Thanks,Male,English,NA,15
2999,default,block1,emily,projective,0,39917,think,20,think,C,NA,default,39,Yes,Thanks,Male,English,NA,16
2999,default,block1,julian,projective,0.18,10476,discover,21,discover,C,NA,default,39,Yes,Thanks,Male,English,NA,17
2999,default,block1,emma,projective,0.05,18180,suggest,22,suggest,C,NA,default,39,Yes,Thanks,Male,English,NA,18
2999,default,block1,kids,projective,0.99,50983,MC,23,MC,MC,NA,default,39,Yes,Thanks,Male,English,NA,19
2999,default,block1,jayden,projective,0.88,11579,confirm,24,confirm,C,NA,default,39,Yes,Thanks,Male,English,NA,20
2999,default,block1,danny,projective,0.91,22295,confess,25,confess,C,NA,default,39,Yes,Thanks,Male,English,NA,21
2999,default,block1,josh,projective,0.97,38309,be_right,26,be_right,C,NA,default,39,Yes,Thanks,Male,English,NA,22
2999,default,block1,olivia,projective,0.03,13777,say,27,say,C,NA,default,39,Yes,Thanks,Male,English,NA,23
2999,default,block1,tony,projective,0.97,8618,know,28,know,C,NA,default,39,Yes,Thanks,Male,English,NA,24
2999,default,block1,frank,projective,0.88,9329,acknowledge,29,acknowledge,C,NA,default,39,Yes,Thanks,Male,English,NA,25
2999,default,block1,ballet,projective,0.96,7288,MC,30,MC,MC,NA,default,39,Yes,Thanks,Male,English,NA,26
2999,default,block2,julian,ai,0.44999999999999996,12848,discover,32,discover,C,NA,default,39,Yes,Thanks,Male,English,NA,27
2999,default,block2,emily,ai,0.32999999999999996,10524,think,33,think,C,NA,default,39,Yes,Thanks,Male,English,NA,28
2999,default,block2,pizza,ai,0.61,12428,MC,34,MC,MC,NA,default,39,Yes,Thanks,Male,English,NA,29
2999,default,block2,sophia,ai,0.4,24194,see,35,see,C,NA,default,39,Yes,Thanks,Male,English,NA,30
2999,default,block2,jon,ai,0.61,9668,pretend,36,pretend,C,NA,default,39,Yes,Thanks,Male,English,NA,31
2999,default,block2,mia,ai,0.37,8317,be_annoyed,37,be_annoyed,C,NA,default,39,Yes,Thanks,Male,English,NA,32
2999,default,block2,tony,ai,0.52,7154,know,38,know,C,NA,default,39,Yes,Thanks,Male,English,NA,33
2999,default,block2,ballet,ai,0.32999999999999996,22171,MC,39,MC,MC,NA,default,39,Yes,Thanks,Male,English,NA,34
2999,default,block2,jayden,ai,0.6,9233,confirm,40,confirm,C,NA,default,39,Yes,Thanks,Male,English,NA,35
2999,default,block2,hat,ai,0.5,9333,MC,41,MC,MC,NA,default,39,Yes,Thanks,Male,English,NA,36
2999,default,block2,zoe,ai,0.63,7670,hear,42,hear,C,NA,default,39,Yes,Thanks,Male,English,NA,37
2999,default,block2,grace,ai,0.39,82083,inform,43,inform,C,NA,default,39,Yes,Thanks,Male,English,NA,38
2999,default,block2,olivia,ai,0.43000000000000005,6264,say,44,say,C,NA,default,39,Yes,Thanks,Male,English,NA,39
2999,default,block2,josh,ai,0.63,6524,be_right,45,be_right,C,NA,default,39,Yes,Thanks,Male,English,NA,40
2999,default,block2,jackson,ai,0.42000000000000004,6932,demonstrate,46,demonstrate,C,NA,default,39,Yes,Thanks,Male,English,NA,41
2999,default,block2,muffins,ai,0.73,6023,MC,47,MC,MC,NA,default,39,Yes,Thanks,Male,English,NA,42
2999,default,block2,isabella,ai,0.5800000000000001,13240,reveal,48,reveal,C,NA,default,39,Yes,Thanks,Male,English,NA,43
2999,default,block2,frank,ai,0.5800000000000001,7493,acknowledge,49,acknowledge,C,NA,default,39,Yes,Thanks,Male,English,NA,44
2999,default,block2,garage,ai,0.91,10821,MC,50,MC,MC,NA,default,39,Yes,Thanks,Male,English,NA,45
2999,default,block2,danny,ai,0.47,7341,confess,51,confess,C,NA,default,39,Yes,Thanks,Male,English,NA,46
2999,default,block2,owen,ai,0.43000000000000005,9431,admit,52,admit,C,NA,default,39,Yes,Thanks,Male,English,NA,47
2999,default,block2,mary,ai,0.45999999999999996,5391,prove,53,prove,C,NA,default,39,Yes,Thanks,Male,English,NA,48
2999,default,block2,kids,ai,0.96,8810,MC,54,MC,MC,NA,default,39,Yes,Thanks,Male,English,NA,49
2999,default,block2,charley,ai,0.43000000000000005,6314,establish,55,establish,C,NA,default,39,Yes,Thanks,Male,English,NA,50
2999,default,block2,emma,ai,0.43000000000000005,7186,suggest,56,suggest,C,NA,default,39,Yes,Thanks,Male,English,NA,51
2999,default,block2,josie,ai,0.43000000000000005,13223,announce,57,announce,C,NA,default,39,Yes,Thanks,Male,English,NA,52
2879,default,block1,isabella,projective,0.16,13972,confess,5,confess,C,NA,default,25,Yes,NA,Female,English,NA,1
2879,default,block1,jackson,projective,0.07,7484,discover,6,discover,C,NA,default,25,Yes,NA,Female,English,NA,2
2879,default,block1,mia,projective,0,9773,pretend,7,pretend,C,NA,default,25,Yes,NA,Female,English,NA,3
2879,default,block1,tony,projective,0,10159,inform,8,inform,C,NA,default,25,Yes,NA,Female,English,NA,4
2879,default,block1,garage,projective,0.98,10194,MC,9,MC,MC,NA,default,25,Yes,NA,Female,English,NA,5
2879,default,block1,owen,projective,0,8823,reveal,10,reveal,C,NA,default,25,Yes,NA,Female,English,NA,6
2879,default,block1,hat,projective,1,4573,MC,11,MC,MC,NA,default,25,Yes,NA,Female,English,NA,7
2879,default,block1,ballet,projective,1,6717,MC,12,MC,MC,NA,default,25,Yes,NA,Female,English,NA,8
2879,default,block1,jon,projective,0,6762,think,13,think,C,NA,default,25,Yes,NA,Female,English,NA,9
2879,default,block1,emma,projective,0,9132,announce,14,announce,C,NA,default,25,Yes,NA,Female,English,NA,10
2879,default,block1,frank,projective,0,3228,acknowledge,15,acknowledge,C,NA,default,25,Yes,NA,Female,English,NA,11
2879,default,block1,danny,projective,0,2690,hear,16,hear,C,NA,default,25,Yes,NA,Female,English,NA,12
2879,default,block1,grace,projective,0,5218,establish,17,establish,C,NA,default,25,Yes,NA,Female,English,NA,13
2879,default,block1,muffins,projective,1,5075,MC,18,MC,MC,NA,default,25,Yes,NA,Female,English,NA,14
2879,default,block1,charley,projective,0,2594,suggest,19,suggest,C,NA,default,25,Yes,NA,Female,English,NA,15
2879,default,block1,olivia,projective,0,1923,see,20,see,C,NA,default,25,Yes,NA,Female,English,NA,16
2879,default,block1,josie,projective,0,1900,confirm,21,confirm,C,NA,default,25,Yes,NA,Female,English,NA,17
2879,default,block1,zoe,projective,0,2868,admit,22,admit,C,NA,default,25,Yes,NA,Female,English,NA,18
2879,default,block1,jayden,projective,0,3374,prove,23,prove,C,NA,default,25,Yes,NA,Female,English,NA,19
2879,default,block1,josh,projective,0,5714,know,24,know,C,NA,default,25,Yes,NA,Female,English,NA,20
2879,default,block1,julian,projective,0,3541,be_right,25,be_right,C,NA,default,25,Yes,NA,Female,English,NA,21
2879,default,block1,kids,projective,1,3804,MC,26,MC,MC,NA,default,25,Yes,NA,Female,English,NA,22
2879,default,block1,pizza,projective,1,6084,MC,27,MC,MC,NA,default,25,Yes,NA,Female,English,NA,23
2879,default,block1,mary,projective,0,5378,be_annoyed,28,be_annoyed,C,NA,default,25,Yes,NA,Female,English,NA,24
2879,default,block1,sophia,projective,0,5521,say,29,say,C,NA,default,25,Yes,NA,Female,English,NA,25
2879,default,block1,emily,projective,0,2711,demonstrate,30,demonstrate,C,NA,default,25,Yes,NA,Female,English,NA,26
2879,default,block2,hat,ai,1,7061,MC,32,MC,MC,NA,default,25,Yes,NA,Female,English,NA,27
2879,default,block2,frank,ai,1,11582,acknowledge,33,acknowledge,C,NA,default,25,Yes,NA,Female,English,NA,28
2879,default,block2,julian,ai,1,7878,be_right,34,be_right,C,NA,default,25,Yes,NA,Female,English,NA,29
2879,default,block2,josie,ai,1,6202,confirm,35,confirm,C,NA,default,25,Yes,NA,Female,English,NA,30
2879,default,block2,olivia,ai,1,2752,see,36,see,C,NA,default,25,Yes,NA,Female,English,NA,31
2879,default,block2,tony,ai,1,2055,inform,37,inform,C,NA,default,25,Yes,NA,Female,English,NA,32
2879,default,block2,pizza,ai,0,7033,MC,38,MC,MC,NA,default,25,Yes,NA,Female,English,NA,33
2879,default,block2,owen,ai,1,3511,reveal,39,reveal,C,NA,default,25,Yes,NA,Female,English,NA,34
2879,default,block2,kids,ai,0,7931,MC,40,MC,MC,NA,default,25,Yes,NA,Female,English,NA,35
2879,default,block2,josh,ai,1,3333,know,41,know,C,NA,default,25,Yes,NA,Female,English,NA,36
2879,default,block2,jackson,ai,1,2441,discover,42,discover,C,NA,default,25,Yes,NA,Female,English,NA,37
2879,default,block2,mia,ai,1,2498,pretend,43,pretend,C,NA,default,25,Yes,NA,Female,English,NA,38
2879,default,block2,garage,ai,0,4398,MC,44,MC,MC,NA,default,25,Yes,NA,Female,English,NA,39
2879,default,block2,muffins,ai,0,4837,MC,45,MC,MC,NA,default,25,Yes,NA,Female,English,NA,40
2879,default,block2,emily,ai,1,2416,demonstrate,46,demonstrate,C,NA,default,25,Yes,NA,Female,English,NA,41
2879,default,block2,emma,ai,1,1824,announce,47,announce,C,NA,default,25,Yes,NA,Female,English,NA,42
2879,default,block2,jayden,ai,1,2982,prove,48,prove,C,NA,default,25,Yes,NA,Female,English,NA,43
2879,default,block2,sophia,ai,1,6052,say,49,say,C,NA,default,25,Yes,NA,Female,English,NA,44
2879,default,block2,mary,ai,1,2295,be_annoyed,50,be_annoyed,C,NA,default,25,Yes,NA,Female,English,NA,45
2879,default,block2,zoe,ai,1,2801,admit,51,admit,C,NA,default,25,Yes,NA,Female,English,NA,46
2879,default,block2,ballet,ai,0,5624,MC,52,MC,MC,NA,default,25,Yes,NA,Female,English,NA,47
2879,default,block2,jon,ai,1,2632,think,53,think,C,NA,default,25,Yes,NA,Female,English,NA,48
2879,default,block2,isabella,ai,1,1730,confess,54,confess,C,NA,default,25,Yes,NA,Female,English,NA,49
2879,default,block2,grace,ai,1,1945,establish,55,establish,C,NA,default,25,Yes,NA,Female,English,NA,50
2879,default,block2,charley,ai,1,2171,suggest,56,suggest,C,NA,default,25,Yes,NA,Female,English,NA,51
2879,default,block2,danny,ai,1,1778,hear,57,hear,C,NA,default,25,Yes,NA,Female,English,NA,52
2912,default,block1,hat,ai,0.18999999999999995,15392,MC,5,MC,MC,NA,default,22,Yes,NA,Female,English,NA,1
2912,default,block1,jon,ai,0.86,23840,know,6,know,C,NA,default,22,Yes,NA,Female,English,NA,2
2912,default,block1,charley,ai,0.88,9281,be_right,7,be_right,C,NA,default,22,Yes,NA,Female,English,NA,3
2912,default,block1,jackson,ai,0.6,12691,admit,8,admit,C,NA,default,22,Yes,NA,Female,English,NA,4
2912,default,block1,isabella,ai,0.6599999999999999,15456,confirm,9,confirm,C,NA,default,22,Yes,NA,Female,English,NA,5
2912,default,block1,kids,ai,0.87,9390,MC,10,MC,MC,NA,default,22,Yes,NA,Female,English,NA,6
2912,default,block1,danny,ai,0.43000000000000005,11067,reveal,11,reveal,C,NA,default,22,Yes,NA,Female,English,NA,7
2912,default,block1,ballet,ai,0.62,8336,MC,12,MC,MC,NA,default,22,Yes,NA,Female,English,NA,8
2912,default,block1,emily,ai,0.6,4740,think,13,think,C,NA,default,22,Yes,NA,Female,English,NA,9
2912,default,block1,garage,ai,0.75,10579,MC,14,MC,MC,NA,default,22,Yes,NA,Female,English,NA,10
2912,default,block1,owen,ai,0.6699999999999999,6075,say,15,say,C,NA,default,22,Yes,NA,Female,English,NA,11
2912,default,block1,zoe,ai,0.4,8522,be_annoyed,16,be_annoyed,C,NA,default,22,Yes,NA,Female,English,NA,12
2912,default,block1,pizza,ai,0.8,6727,MC,17,MC,MC,NA,default,22,Yes,NA,Female,English,NA,13
2912,default,block1,olivia,ai,0.39,8361,hear,18,hear,C,NA,default,22,Yes,NA,Female,English,NA,14
2912,default,block1,mary,ai,0.43999999999999995,12379,pretend,19,pretend,C,NA,default,22,Yes,NA,Female,English,NA,15
2912,default,block1,emma,ai,0.5,4816,confess,20,confess,C,NA,default,22,Yes,NA,Female,English,NA,16
2912,default,block1,sophia,ai,0.62,5857,suggest,21,suggest,C,NA,default,22,Yes,NA,Female,English,NA,17
2912,default,block1,tony,ai,0.44999999999999996,13392,establish,22,establish,C,NA,default,22,Yes,NA,Female,English,NA,18
2912,default,block1,frank,ai,0.61,25014,prove,23,prove,C,NA,default,22,Yes,NA,Female,English,NA,19
2912,default,block1,josie,ai,0.44999999999999996,8643,inform,24,inform,C,NA,default,22,Yes,NA,Female,English,NA,20
2912,default,block1,mia,ai,0.5900000000000001,9192,demonstrate,25,demonstrate,C,NA,default,22,Yes,NA,Female,English,NA,21
2912,default,block1,grace,ai,0.65,4849,announce,26,announce,C,NA,default,22,Yes,NA,Female,English,NA,22
2912,default,block1,julian,ai,0.5800000000000001,2139,see,27,see,C,NA,default,22,Yes,NA,Female,English,NA,23
2912,default,block1,jayden,ai,0.48,4207,acknowledge,28,acknowledge,C,NA,default,22,Yes,NA,Female,English,NA,24
2912,default,block1,muffins,ai,0.30000000000000004,6669,MC,29,MC,MC,NA,default,22,Yes,NA,Female,English,NA,25
2912,default,block1,josh,ai,0.5900000000000001,5920,discover,30,discover,C,NA,default,22,Yes,NA,Female,English,NA,26
2912,default,block2,isabella,projective,0.37,13147,confirm,32,confirm,C,NA,default,22,Yes,NA,Female,English,NA,27
2912,default,block2,frank,projective,0.59,5036,prove,33,prove,C,NA,default,22,Yes,NA,Female,English,NA,28
2912,default,block2,ballet,projective,0.93,3649,MC,34,MC,MC,NA,default,22,Yes,NA,Female,English,NA,29
2912,default,block2,emily,projective,0.32,2561,think,35,think,C,NA,default,22,Yes,NA,Female,English,NA,30
2912,default,block2,julian,projective,0.32,3424,see,36,see,C,NA,default,22,Yes,NA,Female,English,NA,31
2912,default,block2,jayden,projective,0.23,1922,acknowledge,37,acknowledge,C,NA,default,22,Yes,NA,Female,English,NA,32
2912,default,block2,josh,projective,0.35,2150,discover,38,discover,C,NA,default,22,Yes,NA,Female,English,NA,33
2912,default,block2,josie,projective,0.37,2906,inform,39,inform,C,NA,default,22,Yes,NA,Female,English,NA,34
2912,default,block2,owen,projective,0.28,2073,say,40,say,C,NA,default,22,Yes,NA,Female,English,NA,35
2912,default,block2,danny,projective,0.24,2851,reveal,41,reveal,C,NA,default,22,Yes,NA,Female,English,NA,36
2912,default,block2,charley,projective,0.61,4780,be_right,42,be_right,C,NA,default,22,Yes,NA,Female,English,NA,37
2912,default,block2,olivia,projective,0.64,3312,hear,43,hear,C,NA,default,22,Yes,NA,Female,English,NA,38
2912,default,block2,sophia,projective,0.41,5264,suggest,44,suggest,C,NA,default,22,Yes,NA,Female,English,NA,39
2912,default,block2,kids,projective,0.78,3723,MC,45,MC,MC,NA,default,22,Yes,NA,Female,English,NA,40
2912,default,block2,jackson,projective,0.38,2052,admit,46,admit,C,NA,default,22,Yes,NA,Female,English,NA,41
2912,default,block2,tony,projective,0.33,2931,establish,47,establish,C,NA,default,22,Yes,NA,Female,English,NA,42
2912,default,block2,mia,projective,0.36,2964,demonstrate,48,demonstrate,C,NA,default,22,Yes,NA,Female,English,NA,43
2912,default,block2,mary,projective,0.4,2517,pretend,49,pretend,C,NA,default,22,Yes,NA,Female,English,NA,44
2912,default,block2,garage,projective,0.93,4668,MC,50,MC,MC,NA,default,22,Yes,NA,Female,English,NA,45
2912,default,block2,pizza,projective,0.81,2173,MC,51,MC,MC,NA,default,22,Yes,NA,Female,English,NA,46
2912,default,block2,grace,projective,0.36,2196,announce,52,announce,C,NA,default,22,Yes,NA,Female,English,NA,47
2912,default,block2,emma,projective,0.41,2383,confess,53,confess,C,NA,default,22,Yes,NA,Female,English,NA,48
2912,default,block2,zoe,projective,0.26,2180,be_annoyed,54,be_annoyed,C,NA,default,22,Yes,NA,Female,English,NA,49
2912,default,block2,hat,projective,0.89,3674,MC,55,MC,MC,NA,default,22,Yes,NA,Female,English,NA,50
2912,default,block2,muffins,projective,0.94,4314,MC,56,MC,MC,NA,default,22,Yes,NA,Female,English,NA,51
2912,default,block2,jon,projective,0.4,3101,know,57,know,C,NA,default,22,Yes,NA,Female,English,NA,52
2878,default,block1,pizza,ai,0.83,8239,MC,5,MC,MC,NA,default,23,Yes,It was confusing,Female,English,NA,1
2878,default,block1,jackson,ai,0.72,10596,announce,6,announce,C,NA,default,23,Yes,It was confusing,Female,English,NA,2
2878,default,block1,olivia,ai,0.6699999999999999,8515,confess,7,confess,C,NA,default,23,Yes,It was confusing,Female,English,NA,3
2878,default,block1,emma,ai,0.6699999999999999,9776,inform,8,inform,C,NA,default,23,Yes,It was confusing,Female,English,NA,4
2878,default,block1,zoe,ai,0.69,6761,be_right,9,be_right,C,NA,default,23,Yes,It was confusing,Female,English,NA,5
2878,default,block1,kids,ai,0.72,6874,MC,10,MC,MC,NA,default,23,Yes,It was confusing,Female,English,NA,6
2878,default,block1,muffins,ai,0.8,18538,MC,11,MC,MC,NA,default,23,Yes,It was confusing,Female,English,NA,7
2878,default,block1,josie,ai,0.72,11260,pretend,12,pretend,C,NA,default,23,Yes,It was confusing,Female,English,NA,8
2878,default,block1,ballet,ai,0.76,4962,MC,13,MC,MC,NA,default,23,Yes,It was confusing,Female,English,NA,9
2878,default,block1,hat,ai,0.6699999999999999,8538,MC,14,MC,MC,NA,default,23,Yes,It was confusing,Female,English,NA,10
2878,default,block1,mary,ai,0.76,5006,acknowledge,15,acknowledge,C,NA,default,23,Yes,It was confusing,Female,English,NA,11
2878,default,block1,jayden,ai,0.76,3915,admit,16,admit,C,NA,default,23,Yes,It was confusing,Female,English,NA,12
2878,default,block1,grace,ai,0.79,6030,hear,17,hear,C,NA,default,23,Yes,It was confusing,Female,English,NA,13
2878,default,block1,garage,ai,0.79,4668,MC,18,MC,MC,NA,default,23,Yes,It was confusing,Female,English,NA,14
2878,default,block1,emily,ai,0.75,6233,prove,19,prove,C,NA,default,23,Yes,It was confusing,Female,English,NA,15
2878,default,block1,isabella,ai,0.73,9922,establish,20,establish,C,NA,default,23,Yes,It was confusing,Female,English,NA,16
2878,default,block1,jon,ai,0.74,4663,discover,21,discover,C,NA,default,23,Yes,It was confusing,Female,English,NA,17
2878,default,block1,julian,ai,0.77,3819,demonstrate,22,demonstrate,C,NA,default,23,Yes,It was confusing,Female,English,NA,18
2878,default,block1,charley,ai,0.78,4432,say,23,say,C,NA,default,23,Yes,It was confusing,Female,English,NA,19
2878,default,block1,mia,ai,0.74,3836,reveal,24,reveal,C,NA,default,23,Yes,It was confusing,Female,English,NA,20
2878,default,block1,frank,ai,0.76,4163,know,25,know,C,NA,default,23,Yes,It was confusing,Female,English,NA,21
2878,default,block1,josh,ai,0.71,5557,think,26,think,C,NA,default,23,Yes,It was confusing,Female,English,NA,22
2878,default,block1,danny,ai,0.77,2958,suggest,27,suggest,C,NA,default,23,Yes,It was confusing,Female,English,NA,23
2878,default,block1,sophia,ai,0.8,10429,see,28,see,C,NA,default,23,Yes,It was confusing,Female,English,NA,24
2878,default,block1,owen,ai,0.8,2835,confirm,29,confirm,C,NA,default,23,Yes,It was confusing,Female,English,NA,25
2878,default,block1,tony,ai,0.81,3318,be_annoyed,30,be_annoyed,C,NA,default,23,Yes,It was confusing,Female,English,NA,26
2878,default,block2,josie,projective,0.17,8043,pretend,32,pretend,C,NA,default,23,Yes,It was confusing,Female,English,NA,27
2878,default,block2,hat,projective,0.3,5106,MC,33,MC,MC,NA,default,23,Yes,It was confusing,Female,English,NA,28
2878,default,block2,emily,projective,0.35,4590,prove,34,prove,C,NA,default,23,Yes,It was confusing,Female,English,NA,29
2878,default,block2,owen,projective,0.28,3307,confirm,35,confirm,C,NA,default,23,Yes,It was confusing,Female,English,NA,30
2878,default,block2,pizza,projective,0.83,6524,MC,36,MC,MC,NA,default,23,Yes,It was confusing,Female,English,NA,31
2878,default,block2,ballet,projective,0.85,3859,MC,37,MC,MC,NA,default,23,Yes,It was confusing,Female,English,NA,32
2878,default,block2,garage,projective,0.78,3083,MC,38,MC,MC,NA,default,23,Yes,It was confusing,Female,English,NA,33
2878,default,block2,olivia,projective,0.22,2981,confess,39,confess,C,NA,default,23,Yes,It was confusing,Female,English,NA,34
2878,default,block2,grace,projective,0.27,17830,hear,40,hear,C,NA,default,23,Yes,It was confusing,Female,English,NA,35
2878,default,block2,mary,projective,0.29,27808,acknowledge,41,acknowledge,C,NA,default,23,Yes,It was confusing,Female,English,NA,36
2878,default,block2,tony,projective,0.33,2543,be_annoyed,42,be_annoyed,C,NA,default,23,Yes,It was confusing,Female,English,NA,37
2878,default,block2,kids,projective,0.9,5286,MC,43,MC,MC,NA,default,23,Yes,It was confusing,Female,English,NA,38
2878,default,block2,sophia,projective,0.36,9305,see,44,see,C,NA,default,23,Yes,It was confusing,Female,English,NA,39
2878,default,block2,jayden,projective,0.37,3363,admit,45,admit,C,NA,default,23,Yes,It was confusing,Female,English,NA,40
2878,default,block2,mia,projective,0.35,4151,reveal,46,reveal,C,NA,default,23,Yes,It was confusing,Female,English,NA,41
2878,default,block2,frank,projective,0.34,2463,know,47,know,C,NA,default,23,Yes,It was confusing,Female,English,NA,42
2878,default,block2,muffins,projective,0.96,5718,MC,48,MC,MC,NA,default,23,Yes,It was confusing,Female,English,NA,43
2878,default,block2,zoe,projective,0.33,3518,be_right,49,be_right,C,NA,default,23,Yes,It was confusing,Female,English,NA,44
2878,default,block2,jackson,projective,0.3,5545,announce,50,announce,C,NA,default,23,Yes,It was confusing,Female,English,NA,45
2878,default,block2,julian,projective,0.31,2442,demonstrate,51,demonstrate,C,NA,default,23,Yes,It was confusing,Female,English,NA,46
2878,default,block2,josh,projective,0.31,3769,think,52,think,C,NA,default,23,Yes,It was confusing,Female,English,NA,47
2878,default,block2,emma,projective,0.33,2096,inform,53,inform,C,NA,default,23,Yes,It was confusing,Female,English,NA,48
2878,default,block2,jon,projective,0.31,2538,discover,54,discover,C,NA,default,23,Yes,It was confusing,Female,English,NA,49
2878,default,block2,isabella,projective,0.28,11879,establish,55,establish,C,NA,default,23,Yes,It was confusing,Female,English,NA,50
2878,default,block2,danny,projective,0.28,1855,suggest,56,suggest,C,NA,default,23,Yes,It was confusing,Female,English,NA,51
2878,default,block2,charley,projective,0.28,2059,say,57,say,C,NA,default,23,Yes,It was confusing,Female,English,NA,52
2943,default,block1,grace,ai,0.98,18578,announce,5,announce,C,NA,default,26,Yes,NA,Female,English,NA,1
2943,default,block1,jon,ai,0.51,14340,discover,6,discover,C,NA,default,26,Yes,NA,Female,English,NA,2
2943,default,block1,josie,ai,0.97,9787,hear,7,hear,C,NA,default,26,Yes,NA,Female,English,NA,3
2943,default,block1,kids,ai,0.98,12371,MC,8,MC,MC,NA,default,26,Yes,NA,Female,English,NA,4
2943,default,block1,jayden,ai,0.26,11167,inform,9,inform,C,NA,default,26,Yes,NA,Female,English,NA,5
2943,default,block1,zoe,ai,0.33999999999999997,8168,confess,10,confess,C,NA,default,26,Yes,NA,Female,English,NA,6
2943,default,block1,hat,ai,0.09999999999999998,7532,MC,11,MC,MC,NA,default,26,Yes,NA,Female,English,NA,7
2943,default,block1,julian,ai,0.69,9509,suggest,12,suggest,C,NA,default,26,Yes,NA,Female,English,NA,8
2943,default,block1,josh,ai,0.47,12952,admit,13,admit,C,NA,default,26,Yes,NA,Female,English,NA,9
2943,default,block1,garage,ai,0.83,8630,MC,14,MC,MC,NA,default,26,Yes,NA,Female,English,NA,10
2943,default,block1,emma,ai,0.43999999999999995,13956,pretend,15,pretend,C,NA,default,26,Yes,NA,Female,English,NA,11
2943,default,block1,charley,ai,0.6,9228,prove,16,prove,C,NA,default,26,Yes,NA,Female,English,NA,12
2943,default,block1,pizza,ai,0.65,12537,MC,17,MC,MC,NA,default,26,Yes,NA,Female,English,NA,13
2943,default,block1,isabella,ai,0.20999999999999996,6060,reveal,18,reveal,C,NA,default,26,Yes,NA,Female,English,NA,14
2943,default,block1,owen,ai,0.27,7453,know,19,know,C,NA,default,26,Yes,NA,Female,English,NA,15
2943,default,block1,mary,ai,0.26,6973,think,20,think,C,NA,default,26,Yes,NA,Female,English,NA,16
2943,default,block1,danny,ai,0.72,6839,acknowledge,21,acknowledge,C,NA,default,26,Yes,NA,Female,English,NA,17
2943,default,block1,ballet,ai,0.74,5640,MC,22,MC,MC,NA,default,26,Yes,NA,Female,English,NA,18
2943,default,block1,sophia,ai,0.06000000000000005,4488,establish,23,establish,C,NA,default,26,Yes,NA,Female,English,NA,19
2943,default,block1,jackson,ai,0.91,8223,see,24,see,C,NA,default,26,Yes,NA,Female,English,NA,20
2943,default,block1,emily,ai,0.6799999999999999,8370,say,25,say,C,NA,default,26,Yes,NA,Female,English,NA,21
2943,default,block1,mia,ai,0.030000000000000027,3980,be_annoyed,26,be_annoyed,C,NA,default,26,Yes,NA,Female,English,NA,22
2943,default,block1,muffins,ai,0.53,7687,MC,27,MC,MC,NA,default,26,Yes,NA,Female,English,NA,23
2943,default,block1,tony,ai,0.24,5751,be_right,28,be_right,C,NA,default,26,Yes,NA,Female,English,NA,24
2943,default,block1,olivia,ai,0.6699999999999999,7429,confirm,29,confirm,C,NA,default,26,Yes,NA,Female,English,NA,25
2943,default,block1,frank,ai,0.47,4570,demonstrate,30,demonstrate,C,NA,default,26,Yes,NA,Female,English,NA,26
2943,default,block2,zoe,projective,0.25,10094,confess,32,confess,C,NA,default,26,Yes,NA,Female,English,NA,27
2943,default,block2,danny,projective,1,6156,acknowledge,33,acknowledge,C,NA,default,26,Yes,NA,Female,English,NA,28
2943,default,block2,muffins,projective,0.98,5300,MC,34,MC,MC,NA,default,26,Yes,NA,Female,English,NA,29
2943,default,block2,sophia,projective,0.9,3336,establish,35,establish,C,NA,default,26,Yes,NA,Female,English,NA,30
2943,default,block2,julian,projective,0.17,3803,suggest,36,suggest,C,NA,default,26,Yes,NA,Female,English,NA,31
2943,default,block2,jon,projective,0.88,4511,discover,37,discover,C,NA,default,26,Yes,NA,Female,English,NA,32
2943,default,block2,mary,projective,0.27,4247,think,38,think,C,NA,default,26,Yes,NA,Female,English,NA,33
2943,default,block2,tony,projective,0.75,6614,be_right,39,be_right,C,NA,default,26,Yes,NA,Female,English,NA,34
2943,default,block2,josie,projective,0.29,9188,hear,40,hear,C,NA,default,26,Yes,NA,Female,English,NA,35
2943,default,block2,jackson,projective,0.92,3311,see,41,see,C,NA,default,26,Yes,NA,Female,English,NA,36
2943,default,block2,frank,projective,0.33,4576,demonstrate,42,demonstrate,C,NA,default,26,Yes,NA,Female,English,NA,37
2943,default,block2,owen,projective,0.65,4166,know,43,know,C,NA,default,26,Yes,NA,Female,English,NA,38
2943,default,block2,josh,projective,0.74,2675,admit,44,admit,C,NA,default,26,Yes,NA,Female,English,NA,39
2943,default,block2,pizza,projective,0.78,4463,MC,45,MC,MC,NA,default,26,Yes,NA,Female,English,NA,40
2943,default,block2,garage,projective,0.84,5439,MC,46,MC,MC,NA,default,26,Yes,NA,Female,English,NA,41
2943,default,block2,isabella,projective,0.25,5454,reveal,47,reveal,C,NA,default,26,Yes,NA,Female,English,NA,42
2943,default,block2,jayden,projective,0.21,2370,inform,48,inform,C,NA,default,26,Yes,NA,Female,English,NA,43
2943,default,block2,hat,projective,1,4213,MC,49,MC,MC,NA,default,26,Yes,NA,Female,English,NA,44
2943,default,block2,olivia,projective,0.13,2628,confirm,50,confirm,C,NA,default,26,Yes,NA,Female,English,NA,45
2943,default,block2,ballet,projective,0.94,2666,MC,51,MC,MC,NA,default,26,Yes,NA,Female,English,NA,46
2943,default,block2,emma,projective,0.22,5013,pretend,52,pretend,C,NA,default,26,Yes,NA,Female,English,NA,47
2943,default,block2,grace,projective,0.13,2087,announce,53,announce,C,NA,default,26,Yes,NA,Female,English,NA,48
2943,default,block2,charley,projective,0.04,2900,prove,54,prove,C,NA,default,26,Yes,NA,Female,English,NA,49
2943,default,block2,emily,projective,0.03,2192,say,55,say,C,NA,default,26,Yes,NA,Female,English,NA,50
2943,default,block2,kids,projective,0.95,2481,MC,56,MC,MC,NA,default,26,Yes,NA,Female,English,NA,51
2943,default,block2,mia,projective,0.15,2467,be_annoyed,57,be_annoyed,C,NA,default,26,Yes,NA,Female,English,NA,52
2845,default,block1,emma,projective,0.02,11982,see,5,see,C,NA,default,24,Yes,NA,Female,English,NA,1
2845,default,block1,danny,projective,1,15579,be_annoyed,6,be_annoyed,C,NA,default,24,Yes,NA,Female,English,NA,2
2845,default,block1,kids,projective,0.96,10327,MC,7,MC,MC,NA,default,24,Yes,NA,Female,English,NA,3
2845,default,block1,tony,projective,0.32,8034,be_right,8,be_right,C,NA,default,24,Yes,NA,Female,English,NA,4
2845,default,block1,grace,projective,0.37,10697,reveal,9,reveal,C,NA,default,24,Yes,NA,Female,English,NA,5
2845,default,block1,ballet,projective,1,6025,MC,10,MC,MC,NA,default,24,Yes,NA,Female,English,NA,6
2845,default,block1,isabella,projective,1,10474,know,11,know,C,NA,default,24,Yes,NA,Female,English,NA,7
2845,default,block1,jackson,projective,0.14,7387,pretend,12,pretend,C,NA,default,24,Yes,NA,Female,English,NA,8
2845,default,block1,josie,projective,0.38,13007,confirm,13,confirm,C,NA,default,24,Yes,NA,Female,English,NA,9
2845,default,block1,pizza,projective,1,6966,MC,14,MC,MC,NA,default,24,Yes,NA,Female,English,NA,10
2845,default,block1,mia,projective,0.31,7725,establish,15,establish,C,NA,default,24,Yes,NA,Female,English,NA,11
2845,default,block1,sophia,projective,0.21,6076,suggest,16,suggest,C,NA,default,24,Yes,NA,Female,English,NA,12
2845,default,block1,frank,projective,0.73,7789,confess,17,confess,C,NA,default,24,Yes,NA,Female,English,NA,13
2845,default,block1,mary,projective,0.6,6583,demonstrate,18,demonstrate,C,NA,default,24,Yes,NA,Female,English,NA,14
2845,default,block1,muffins,projective,1,6849,MC,19,MC,MC,NA,default,24,Yes,NA,Female,English,NA,15
2845,default,block1,charley,projective,0.82,9847,admit,20,admit,C,NA,default,24,Yes,NA,Female,English,NA,16
2845,default,block1,jayden,projective,0.81,7082,acknowledge,21,acknowledge,C,NA,default,24,Yes,NA,Female,English,NA,17
2845,default,block1,emily,projective,0.41,6380,prove,22,prove,C,NA,default,24,Yes,NA,Female,English,NA,18
2845,default,block1,jon,projective,0.87,5368,inform,23,inform,C,NA,default,24,Yes,NA,Female,English,NA,19
2845,default,block1,garage,projective,0.97,7284,MC,24,MC,MC,NA,default,24,Yes,NA,Female,English,NA,20
2845,default,block1,hat,projective,0.98,5445,MC,25,MC,MC,NA,default,24,Yes,NA,Female,English,NA,21
2845,default,block1,julian,projective,0.33,6054,think,26,think,C,NA,default,24,Yes,NA,Female,English,NA,22
2845,default,block1,josh,projective,0.34,6243,say,27,say,C,NA,default,24,Yes,NA,Female,English,NA,23
2845,default,block1,zoe,projective,0.82,8496,discover,28,discover,C,NA,default,24,Yes,NA,Female,English,NA,24
2845,default,block1,owen,projective,0.89,6446,announce,29,announce,C,NA,default,24,Yes,NA,Female,English,NA,25
2845,default,block1,olivia,projective,0.38,6722,hear,30,hear,C,NA,default,24,Yes,NA,Female,English,NA,26
2845,default,block2,hat,ai,0.040000000000000036,8377,MC,32,MC,MC,NA,default,24,Yes,NA,Female,English,NA,27
2845,default,block2,jackson,ai,0.74,12447,pretend,33,pretend,C,NA,default,24,Yes,NA,Female,English,NA,28
2845,default,block2,josie,ai,0.6,8174,confirm,34,confirm,C,NA,default,24,Yes,NA,Female,English,NA,29
2845,default,block2,tony,ai,0.65,5318,be_right,35,be_right,C,NA,default,24,Yes,NA,Female,English,NA,30
2845,default,block2,danny,ai,0.38,4625,be_annoyed,36,be_annoyed,C,NA,default,24,Yes,NA,Female,English,NA,31
2845,default,block2,mary,ai,0.6,6255,demonstrate,37,demonstrate,C,NA,default,24,Yes,NA,Female,English,NA,32
2845,default,block2,grace,ai,0.69,4419,reveal,38,reveal,C,NA,default,24,Yes,NA,Female,English,NA,33
2845,default,block2,mia,ai,0.5700000000000001,5821,establish,39,establish,C,NA,default,24,Yes,NA,Female,English,NA,34
2845,default,block2,owen,ai,0.65,3317,announce,40,announce,C,NA,default,24,Yes,NA,Female,English,NA,35
2845,default,block2,olivia,ai,0.64,3441,hear,41,hear,C,NA,default,24,Yes,NA,Female,English,NA,36
2845,default,block2,zoe,ai,0.6699999999999999,3677,discover,42,discover,C,NA,default,24,Yes,NA,Female,English,NA,37
2845,default,block2,kids,ai,0.6599999999999999,6810,MC,43,MC,MC,NA,default,24,Yes,NA,Female,English,NA,38
2845,default,block2,jon,ai,0.76,4557,inform,44,inform,C,NA,default,24,Yes,NA,Female,English,NA,39
2845,default,block2,isabella,ai,0.6699999999999999,5569,know,45,know,C,NA,default,24,Yes,NA,Female,English,NA,40
2845,default,block2,garage,ai,0.31999999999999995,6791,MC,46,MC,MC,NA,default,24,Yes,NA,Female,English,NA,41
2845,default,block2,julian,ai,0.30000000000000004,3897,think,47,think,C,NA,default,24,Yes,NA,Female,English,NA,42
2845,default,block2,muffins,ai,0.18999999999999995,4267,MC,48,MC,MC,NA,default,24,Yes,NA,Female,English,NA,43
2845,default,block2,charley,ai,0.62,3465,admit,49,admit,C,NA,default,24,Yes,NA,Female,English,NA,44
2845,default,block2,josh,ai,0.6599999999999999,1605,say,50,say,C,NA,default,24,Yes,NA,Female,English,NA,45
2845,default,block2,emily,ai,0.65,1851,prove,51,prove,C,NA,default,24,Yes,NA,Female,English,NA,46
2845,default,block2,sophia,ai,0.6699999999999999,6817,suggest,52,suggest,C,NA,default,24,Yes,NA,Female,English,NA,47
2845,default,block2,pizza,ai,0.18000000000000005,12253,MC,53,MC,MC,NA,default,24,Yes,NA,Female,English,NA,48
2845,default,block2,frank,ai,0.6599999999999999,3253,confess,54,confess,C,NA,default,24,Yes,NA,Female,English,NA,49
2845,default,block2,emma,ai,0.6599999999999999,1654,see,55,see,C,NA,default,24,Yes,NA,Female,English,NA,50
2845,default,block2,ballet,ai,0.63,1205,MC,56,MC,MC,NA,default,24,Yes,NA,Female,English,NA,51
2845,default,block2,jayden,ai,0.6799999999999999,2525,acknowledge,57,acknowledge,C,NA,default,24,Yes,NA,Female,English,NA,52
2945,default,block1,julian,ai,0.75,51218,confirm,5,confirm,C,NA,default,54,Yes,Even the statements that were more certain than the others were unclear in their responses and not great sounding,Female,English,NA,1
2945,default,block1,sophia,ai,0.74,13143,pretend,6,pretend,C,NA,default,54,Yes,Even the statements that were more certain than the others were unclear in their responses and not great sounding,Female,English,NA,2
2945,default,block1,danny,ai,0.78,8635,reveal,7,reveal,C,NA,default,54,Yes,Even the statements that were more certain than the others were unclear in their responses and not great sounding,Female,English,NA,3
2945,default,block1,mary,ai,0.78,6835,establish,8,establish,C,NA,default,54,Yes,Even the statements that were more certain than the others were unclear in their responses and not great sounding,Female,English,NA,4
2945,default,block1,hat,ai,0.6,25294,MC,9,MC,MC,NA,default,54,Yes,Even the statements that were more certain than the others were unclear in their responses and not great sounding,Female,English,NA,5
2945,default,block1,jon,ai,0.74,9945,be_annoyed,10,be_annoyed,C,NA,default,54,Yes,Even the statements that were more certain than the others were unclear in their responses and not great sounding,Female,English,NA,6
2945,default,block1,frank,ai,0.78,6755,demonstrate,11,demonstrate,C,NA,default,54,Yes,Even the statements that were more certain than the others were unclear in their responses and not great sounding,Female,English,NA,7
2945,default,block1,emma,ai,0.78,9968,announce,12,announce,C,NA,default,54,Yes,Even the statements that were more certain than the others were unclear in their responses and not great sounding,Female,English,NA,8
2945,default,block1,olivia,ai,0.77,9267,acknowledge,13,acknowledge,C,NA,default,54,Yes,Even the statements that were more certain than the others were unclear in their responses and not great sounding,Female,English,NA,9
2945,default,block1,ballet,ai,0.62,11308,MC,14,MC,MC,NA,default,54,Yes,Even the statements that were more certain than the others were unclear in their responses and not great sounding,Female,English,NA,10
2945,default,block1,owen,ai,0.83,10480,suggest,15,suggest,C,NA,default,54,Yes,Even the statements that were more certain than the others were unclear in their responses and not great sounding,Female,English,NA,11
2945,default,block1,grace,ai,0.86,8550,be_right,16,be_right,C,NA,default,54,Yes,Even the statements that were more certain than the others were unclear in their responses and not great sounding,Female,English,NA,12
2945,default,block1,josie,ai,0.84,5059,prove,17,prove,C,NA,default,54,Yes,Even the statements that were more certain than the others were unclear in their responses and not great sounding,Female,English,NA,13
2945,default,block1,tony,ai,0.8200000000000001,5515,see,18,see,C,NA,default,54,Yes,Even the statements that were more certain than the others were unclear in their responses and not great sounding,Female,English,NA,14
2945,default,block1,mia,ai,0.8200000000000001,7644,discover,19,discover,C,NA,default,54,Yes,Even the statements that were more certain than the others were unclear in their responses and not great sounding,Female,English,NA,15
2945,default,block1,isabella,ai,0.81,6605,admit,20,admit,C,NA,default,54,Yes,Even the statements that were more certain than the others were unclear in their responses and not great sounding,Female,English,NA,16
2945,default,block1,muffins,ai,0.63,12255,MC,21,MC,MC,NA,default,54,Yes,Even the statements that were more certain than the others were unclear in their responses and not great sounding,Female,English,NA,17
2945,default,block1,charley,ai,0.8200000000000001,7670,hear,22,hear,C,NA,default,54,Yes,Even the statements that were more certain than the others were unclear in their responses and not great sounding,Female,English,NA,18
2945,default,block1,jackson,ai,0.86,6030,confess,23,confess,C,NA,default,54,Yes,Even the statements that were more certain than the others were unclear in their responses and not great sounding,Female,English,NA,19
2945,default,block1,zoe,ai,0.85,7330,know,24,know,C,NA,default,54,Yes,Even the statements that were more certain than the others were unclear in their responses and not great sounding,Female,English,NA,20
2945,default,block1,pizza,ai,0.6,10716,MC,25,MC,MC,NA,default,54,Yes,Even the statements that were more certain than the others were unclear in their responses and not great sounding,Female,English,NA,21
2945,default,block1,kids,ai,0.5800000000000001,5659,MC,26,MC,MC,NA,default,54,Yes,Even the statements that were more certain than the others were unclear in their responses and not great sounding,Female,English,NA,22
2945,default,block1,josh,ai,0.86,10645,inform,27,inform,C,NA,default,54,Yes,Even the statements that were more certain than the others were unclear in their responses and not great sounding,Female,English,NA,23
2945,default,block1,emily,ai,0.87,7180,think,28,think,C,NA,default,54,Yes,Even the statements that were more certain than the others were unclear in their responses and not great sounding,Female,English,NA,24
2945,default,block1,jayden,ai,0.88,6260,say,29,say,C,NA,default,54,Yes,Even the statements that were more certain than the others were unclear in their responses and not great sounding,Female,English,NA,25
2945,default,block1,garage,ai,0.5900000000000001,7256,MC,30,MC,MC,NA,default,54,Yes,Even the statements that were more certain than the others were unclear in their responses and not great sounding,Female,English,NA,26
2945,default,block2,tony,projective,0,11927,see,32,see,C,NA,default,54,Yes,Even the statements that were more certain than the others were unclear in their responses and not great sounding,Female,English,NA,27
2945,default,block2,isabella,projective,0.01,7120,admit,33,admit,C,NA,default,54,Yes,Even the statements that were more certain than the others were unclear in their responses and not great sounding,Female,English,NA,28
2945,default,block2,emily,projective,0.01,6710,think,34,think,C,NA,default,54,Yes,Even the statements that were more certain than the others were unclear in their responses and not great sounding,Female,English,NA,29
2945,default,block2,pizza,projective,0.97,5175,MC,35,MC,MC,NA,default,54,Yes,Even the statements that were more certain than the others were unclear in their responses and not great sounding,Female,English,NA,30
2945,default,block2,julian,projective,0.04,6495,confirm,36,confirm,C,NA,default,54,Yes,Even the statements that were more certain than the others were unclear in their responses and not great sounding,Female,English,NA,31
2945,default,block2,hat,projective,0.97,4460,MC,37,MC,MC,NA,default,54,Yes,Even the statements that were more certain than the others were unclear in their responses and not great sounding,Female,English,NA,32
2945,default,block2,josh,projective,0.03,6300,inform,38,inform,C,NA,default,54,Yes,Even the statements that were more certain than the others were unclear in their responses and not great sounding,Female,English,NA,33
2945,default,block2,charley,projective,0.02,4759,hear,39,hear,C,NA,default,54,Yes,Even the statements that were more certain than the others were unclear in their responses and not great sounding,Female,English,NA,34
2945,default,block2,frank,projective,0.04,3915,demonstrate,40,demonstrate,C,NA,default,54,Yes,Even the statements that were more certain than the others were unclear in their responses and not great sounding,Female,English,NA,35
2945,default,block2,mary,projective,0,7215,establish,41,establish,C,NA,default,54,Yes,Even the statements that were more certain than the others were unclear in their responses and not great sounding,Female,English,NA,36
2945,default,block2,jon,projective,0,4078,be_annoyed,42,be_annoyed,C,NA,default,54,Yes,Even the statements that were more certain than the others were unclear in their responses and not great sounding,Female,English,NA,37
2945,default,block2,danny,projective,0.01,4921,reveal,43,reveal,C,NA,default,54,Yes,Even the statements that were more certain than the others were unclear in their responses and not great sounding,Female,English,NA,38
2945,default,block2,garage,projective,0.97,5204,MC,44,MC,MC,NA,default,54,Yes,Even the statements that were more certain than the others were unclear in their responses and not great sounding,Female,English,NA,39
2945,default,block2,owen,projective,0.02,6280,suggest,45,suggest,C,NA,default,54,Yes,Even the statements that were more certain than the others were unclear in their responses and not great sounding,Female,English,NA,40
2945,default,block2,josie,projective,0.01,11816,prove,46,prove,C,NA,default,54,Yes,Even the statements that were more certain than the others were unclear in their responses and not great sounding,Female,English,NA,41
2945,default,block2,emma,projective,0.01,3700,announce,47,announce,C,NA,default,54,Yes,Even the statements that were more certain than the others were unclear in their responses and not great sounding,Female,English,NA,42
2945,default,block2,ballet,projective,0.97,4011,MC,48,MC,MC,NA,default,54,Yes,Even the statements that were more certain than the others were unclear in their responses and not great sounding,Female,English,NA,43
2945,default,block2,sophia,projective,0.01,6091,pretend,49,pretend,C,NA,default,54,Yes,Even the statements that were more certain than the others were unclear in their responses and not great sounding,Female,English,NA,44
2945,default,block2,olivia,projective,0.01,3281,acknowledge,50,acknowledge,C,NA,default,54,Yes,Even the statements that were more certain than the others were unclear in their responses and not great sounding,Female,English,NA,45
2945,default,block2,muffins,projective,0.98,5039,MC,51,MC,MC,NA,default,54,Yes,Even the statements that were more certain than the others were unclear in their responses and not great sounding,Female,English,NA,46
2945,default,block2,kids,projective,0.97,6096,MC,52,MC,MC,NA,default,54,Yes,Even the statements that were more certain than the others were unclear in their responses and not great sounding,Female,English,NA,47
2945,default,block2,zoe,projective,0.01,3998,know,53,know,C,NA,default,54,Yes,Even the statements that were more certain than the others were unclear in their responses and not great sounding,Female,English,NA,48
2945,default,block2,mia,projective,0.01,6052,discover,54,discover,C,NA,default,54,Yes,Even the statements that were more certain than the others were unclear in their responses and not great sounding,Female,English,NA,49
2945,default,block2,jackson,projective,0.01,5145,confess,55,confess,C,NA,default,54,Yes,Even the statements that were more certain than the others were unclear in their responses and not great sounding,Female,English,NA,50
2945,default,block2,grace,projective,0.02,3790,be_right,56,be_right,C,NA,default,54,Yes,Even the statements that were more certain than the others were unclear in their responses and not great sounding,Female,English,NA,51
2945,default,block2,jayden,projective,0.01,3035,say,57,say,C,NA,default,54,Yes,Even the statements that were more certain than the others were unclear in their responses and not great sounding,Female,English,NA,52
3017,default,block1,sophia,projective,0.22,19785,suggest,5,suggest,C,NA,default,26,Yes,NA,Female,English,NA,1
3017,default,block1,garage,projective,1,8046,MC,6,MC,MC,NA,default,26,Yes,NA,Female,English,NA,2
3017,default,block1,muffins,projective,1,5382,MC,7,MC,MC,NA,default,26,Yes,NA,Female,English,NA,3
3017,default,block1,isabella,projective,0.55,7298,reveal,8,reveal,C,NA,default,26,Yes,NA,Female,English,NA,4
3017,default,block1,charley,projective,1,5926,be_annoyed,9,be_annoyed,C,NA,default,26,Yes,NA,Female,English,NA,5
3017,default,block1,jackson,projective,0.62,6252,be_right,10,be_right,C,NA,default,26,Yes,NA,Female,English,NA,6
3017,default,block1,josh,projective,0.66,7882,confess,11,confess,C,NA,default,26,Yes,NA,Female,English,NA,7
3017,default,block1,zoe,projective,0.63,6156,prove,12,prove,C,NA,default,26,Yes,NA,Female,English,NA,8
3017,default,block1,emma,projective,0.69,7760,discover,13,discover,C,NA,default,26,Yes,NA,Female,English,NA,9
3017,default,block1,josie,projective,1,9384,know,14,know,C,NA,default,26,Yes,NA,Female,English,NA,10
3017,default,block1,grace,projective,1,5030,hear,15,hear,C,NA,default,26,Yes,NA,Female,English,NA,11
3017,default,block1,julian,projective,1,7114,demonstrate,16,demonstrate,C,NA,default,26,Yes,NA,Female,English,NA,12
3017,default,block1,tony,projective,0.73,6591,see,17,see,C,NA,default,26,Yes,NA,Female,English,NA,13
3017,default,block1,mary,projective,0.55,8437,think,18,think,C,NA,default,26,Yes,NA,Female,English,NA,14
3017,default,block1,pizza,projective,1,4248,MC,19,MC,MC,NA,default,26,Yes,NA,Female,English,NA,15
3017,default,block1,owen,projective,0.71,7148,admit,20,admit,C,NA,default,26,Yes,NA,Female,English,NA,16
3017,default,block1,ballet,projective,1,4605,MC,21,MC,MC,NA,default,26,Yes,NA,Female,English,NA,17
3017,default,block1,kids,projective,1,6331,MC,22,MC,MC,NA,default,26,Yes,NA,Female,English,NA,18
3017,default,block1,jon,projective,0.73,4251,announce,23,announce,C,NA,default,26,Yes,NA,Female,English,NA,19
3017,default,block1,hat,projective,1,3370,MC,24,MC,MC,NA,default,26,Yes,NA,Female,English,NA,20
3017,default,block1,jayden,projective,0.71,3508,confirm,25,confirm,C,NA,default,26,Yes,NA,Female,English,NA,21
3017,default,block1,frank,projective,0.81,8698,inform,26,inform,C,NA,default,26,Yes,NA,Female,English,NA,22
3017,default,block1,emily,projective,0.69,6685,establish,27,establish,C,NA,default,26,Yes,NA,Female,English,NA,23
3017,default,block1,mia,projective,0.36,6761,pretend,28,pretend,C,NA,default,26,Yes,NA,Female,English,NA,24
3017,default,block1,olivia,projective,0.64,4169,acknowledge,29,acknowledge,C,NA,default,26,Yes,NA,Female,English,NA,25
3017,default,block1,danny,projective,0.67,4694,say,30,say,C,NA,default,26,Yes,NA,Female,English,NA,26
3017,default,block2,grace,ai,0.6799999999999999,15933,hear,32,hear,C,NA,default,26,Yes,NA,Female,English,NA,27
3017,default,block2,isabella,ai,0.6799999999999999,12573,reveal,33,reveal,C,NA,default,26,Yes,NA,Female,English,NA,28
3017,default,block2,ballet,ai,0.73,9851,MC,34,MC,MC,NA,default,26,Yes,NA,Female,English,NA,29
3017,default,block2,tony,ai,0.41000000000000003,8018,see,35,see,C,NA,default,26,Yes,NA,Female,English,NA,30
3017,default,block2,pizza,ai,0.65,6706,MC,36,MC,MC,NA,default,26,Yes,NA,Female,English,NA,31
3017,default,block2,garage,ai,0.54,6428,MC,37,MC,MC,NA,default,26,Yes,NA,Female,English,NA,32
3017,default,block2,muffins,ai,0.38,4382,MC,38,MC,MC,NA,default,26,Yes,NA,Female,English,NA,33
3017,default,block2,danny,ai,0.4,9371,say,39,say,C,NA,default,26,Yes,NA,Female,English,NA,34
3017,default,block2,mia,ai,0.41000000000000003,6041,pretend,40,pretend,C,NA,default,26,Yes,NA,Female,English,NA,35
3017,default,block2,julian,ai,0.27,6230,demonstrate,41,demonstrate,C,NA,default,26,Yes,NA,Female,English,NA,36
3017,default,block2,jon,ai,0.28,4695,announce,42,announce,C,NA,default,26,Yes,NA,Female,English,NA,37
3017,default,block2,josie,ai,0.25,7131,know,43,know,C,NA,default,26,Yes,NA,Female,English,NA,38
3017,default,block2,emma,ai,0.32999999999999996,8388,discover,44,discover,C,NA,default,26,Yes,NA,Female,English,NA,39
3017,default,block2,hat,ai,0.54,7102,MC,45,MC,MC,NA,default,26,Yes,NA,Female,English,NA,40
3017,default,block2,mary,ai,0.55,5222,think,46,think,C,NA,default,26,Yes,NA,Female,English,NA,41
3017,default,block2,zoe,ai,0.55,13304,prove,47,prove,C,NA,default,26,Yes,NA,Female,English,NA,42
3017,default,block2,owen,ai,0.26,43658,admit,48,admit,C,NA,default,26,Yes,NA,Female,English,NA,43
3017,default,block2,sophia,ai,0.13,9933,suggest,49,suggest,C,NA,default,26,Yes,NA,Female,English,NA,44
3017,default,block2,frank,ai,0.18999999999999995,7790,inform,50,inform,C,NA,default,26,Yes,NA,Female,English,NA,45
3017,default,block2,charley,ai,0.18000000000000005,7345,be_annoyed,51,be_annoyed,C,NA,default,26,Yes,NA,Female,English,NA,46
3017,default,block2,olivia,ai,0.28,3343,acknowledge,52,acknowledge,C,NA,default,26,Yes,NA,Female,English,NA,47
3017,default,block2,josh,ai,0.28,4128,confess,53,confess,C,NA,default,26,Yes,NA,Female,English,NA,48
3017,default,block2,jayden,ai,0.30000000000000004,3465,confirm,54,confirm,C,NA,default,26,Yes,NA,Female,English,NA,49
3017,default,block2,jackson,ai,1,7334,be_right,55,be_right,C,NA,default,26,Yes,NA,Female,English,NA,50
3017,default,block2,emily,ai,0.26,5222,establish,56,establish,C,NA,default,26,Yes,NA,Female,English,NA,51
3017,default,block2,kids,ai,0.5900000000000001,6133,MC,57,MC,MC,NA,default,26,Yes,NA,Female,English,NA,52
2796,default,block1,ballet,ai,0.99,5622,MC,5,MC,MC,NA,default,19,Yes,NA,Female,english,NA,1
2796,default,block1,jon,ai,0.010000000000000009,21603,confess,6,confess,C,NA,default,19,Yes,NA,Female,english,NA,2
2796,default,block1,sophia,ai,1,4719,pretend,7,pretend,C,NA,default,19,Yes,NA,Female,english,NA,3
2796,default,block1,mia,ai,0.99,7088,reveal,8,reveal,C,NA,default,19,Yes,NA,Female,english,NA,4
2796,default,block1,tony,ai,0.96,7483,discover,9,discover,C,NA,default,19,Yes,NA,Female,english,NA,5
2796,default,block1,julian,ai,0.37,6420,demonstrate,10,demonstrate,C,NA,default,19,Yes,NA,Female,english,NA,6
2796,default,block1,danny,ai,0.62,8645,be_right,11,be_right,C,NA,default,19,Yes,NA,Female,english,NA,7
2796,default,block1,isabella,ai,0.78,5370,confirm,12,confirm,C,NA,default,19,Yes,NA,Female,english,NA,8
2796,default,block1,emma,ai,0.20999999999999996,6565,inform,13,inform,C,NA,default,19,Yes,NA,Female,english,NA,9
2796,default,block1,muffins,ai,0.92,4648,MC,14,MC,MC,NA,default,19,Yes,NA,Female,english,NA,10
2796,default,block1,frank,ai,0.73,5211,think,15,think,C,NA,default,19,Yes,NA,Female,english,NA,11
2796,default,block1,charley,ai,0.8,8332,acknowledge,16,acknowledge,C,NA,default,19,Yes,NA,Female,english,NA,12
2796,default,block1,jayden,ai,0.89,2304,say,17,say,C,NA,default,19,Yes,NA,Female,english,NA,13
2796,default,block1,garage,ai,0.86,2876,MC,18,MC,MC,NA,default,19,Yes,NA,Female,english,NA,14
2796,default,block1,owen,ai,0.86,1455,be_annoyed,19,be_annoyed,C,NA,default,19,Yes,NA,Female,english,NA,15
2796,default,block1,josh,ai,0.78,1219,establish,20,establish,C,NA,default,19,Yes,NA,Female,english,NA,16
2796,default,block1,grace,ai,0.88,2274,prove,21,prove,C,NA,default,19,Yes,NA,Female,english,NA,17
2796,default,block1,zoe,ai,0.86,1271,see,22,see,C,NA,default,19,Yes,NA,Female,english,NA,18
2796,default,block1,mary,ai,0.84,1830,hear,23,hear,C,NA,default,19,Yes,NA,Female,english,NA,19
2796,default,block1,olivia,ai,0.9,3916,know,24,know,C,NA,default,19,Yes,NA,Female,english,NA,20
2796,default,block1,pizza,ai,0.85,1366,MC,25,MC,MC,NA,default,19,Yes,NA,Female,english,NA,21
2796,default,block1,jackson,ai,0.84,1389,announce,26,announce,C,NA,default,19,Yes,NA,Female,english,NA,22
2796,default,block1,hat,ai,0.81,1267,MC,27,MC,MC,NA,default,19,Yes,NA,Female,english,NA,23
2796,default,block1,emily,ai,0.8,1235,suggest,28,suggest,C,NA,default,19,Yes,NA,Female,english,NA,24
2796,default,block1,josie,ai,0.8200000000000001,1354,admit,29,admit,C,NA,default,19,Yes,NA,Female,english,NA,25
2796,default,block1,kids,ai,0.81,1311,MC,30,MC,MC,NA,default,19,Yes,NA,Female,english,NA,26
2796,default,block2,grace,projective,0.8,33006,prove,32,prove,C,NA,default,19,Yes,NA,Female,english,NA,27
2796,default,block2,sophia,projective,0.26,7750,pretend,33,pretend,C,NA,default,19,Yes,NA,Female,english,NA,28
2796,default,block2,hat,projective,0.99,4147,MC,34,MC,MC,NA,default,19,Yes,NA,Female,english,NA,29
2796,default,block2,olivia,projective,0.97,4144,know,35,know,C,NA,default,19,Yes,NA,Female,english,NA,30
2796,default,block2,josh,projective,0.97,4006,establish,36,establish,C,NA,default,19,Yes,NA,Female,english,NA,31
2796,default,block2,emily,projective,0.63,5998,suggest,37,suggest,C,NA,default,19,Yes,NA,Female,english,NA,32
2796,default,block2,jackson,projective,0.97,3236,announce,38,announce,C,NA,default,19,Yes,NA,Female,english,NA,33
2796,default,block2,zoe,projective,0.99,6155,see,39,see,C,NA,default,19,Yes,NA,Female,english,NA,34
2796,default,block2,josie,projective,0.96,18485,admit,40,admit,C,NA,default,19,Yes,NA,Female,english,NA,35
2796,default,block2,mary,projective,0.98,3167,hear,41,hear,C,NA,default,19,Yes,NA,Female,english,NA,36
2796,default,block2,danny,projective,0.99,2136,be_right,42,be_right,C,NA,default,19,Yes,NA,Female,english,NA,37
2796,default,block2,frank,projective,0.59,4027,think,43,think,C,NA,default,19,Yes,NA,Female,english,NA,38
2796,default,block2,owen,projective,0.98,6068,be_annoyed,44,be_annoyed,C,NA,default,19,Yes,NA,Female,english,NA,39
2796,default,block2,muffins,projective,0.99,3269,MC,45,MC,MC,NA,default,19,Yes,NA,Female,english,NA,40
2796,default,block2,charley,projective,0.98,2691,acknowledge,46,acknowledge,C,NA,default,19,Yes,NA,Female,english,NA,41
2796,default,block2,jon,projective,0.96,11412,confess,47,confess,C,NA,default,19,Yes,NA,Female,english,NA,42
2796,default,block2,mia,projective,0.97,5664,reveal,48,reveal,C,NA,default,19,Yes,NA,Female,english,NA,43
2796,default,block2,isabella,projective,0.98,3321,confirm,49,confirm,C,NA,default,19,Yes,NA,Female,english,NA,44
2796,default,block2,julian,projective,0.98,2304,demonstrate,50,demonstrate,C,NA,default,19,Yes,NA,Female,english,NA,45
2796,default,block2,ballet,projective,0.98,3557,MC,51,MC,MC,NA,default,19,Yes,NA,Female,english,NA,46
2796,default,block2,pizza,projective,0.96,2698,MC,52,MC,MC,NA,default,19,Yes,NA,Female,english,NA,47
2796,default,block2,kids,projective,1,1942,MC,53,MC,MC,NA,default,19,Yes,NA,Female,english,NA,48
2796,default,block2,jayden,projective,0.98,2180,say,54,say,C,NA,default,19,Yes,NA,Female,english,NA,49
2796,default,block2,emma,projective,0.99,1819,inform,55,inform,C,NA,default,19,Yes,NA,Female,english,NA,50
2796,default,block2,garage,projective,0.99,1488,MC,56,MC,MC,NA,default,19,Yes,NA,Female,english,NA,51
2796,default,block2,tony,projective,0.98,1487,discover,57,discover,C,NA,default,19,Yes,NA,Female,english,NA,52
2915,default,block1,zoe,projective,0.65,18048,demonstrate,5,demonstrate,C,NA,default,22,Yes,NA,Female,English,NA,1
2915,default,block1,olivia,projective,0.23,8341,confess,6,confess,C,NA,default,22,Yes,NA,Female,English,NA,2
2915,default,block1,josie,projective,0.01,19838,say,7,say,C,NA,default,22,Yes,NA,Female,English,NA,3
2915,default,block1,grace,projective,0.98,6978,discover,8,discover,C,NA,default,22,Yes,NA,Female,English,NA,4
2915,default,block1,owen,projective,0.96,8287,admit,9,admit,C,NA,default,22,Yes,NA,Female,English,NA,5
2915,default,block1,pizza,projective,0.97,8122,MC,10,MC,MC,NA,default,22,Yes,NA,Female,English,NA,6
2915,default,block1,julian,projective,0.98,79052,see,11,see,C,NA,default,22,Yes,NA,Female,English,NA,7
2915,default,block1,emily,projective,0.13,26055,be_right,12,be_right,C,NA,default,22,Yes,NA,Female,English,NA,8
2915,default,block1,isabella,projective,0.97,11148,know,13,know,C,NA,default,22,Yes,NA,Female,English,NA,9
2915,default,block1,frank,projective,0.96,14059,hear,14,hear,C,NA,default,22,Yes,NA,Female,English,NA,10
2915,default,block1,jackson,projective,0.06,5494,suggest,15,suggest,C,NA,default,22,Yes,NA,Female,English,NA,11
2915,default,block1,kids,projective,0.98,33752,MC,16,MC,MC,NA,default,22,Yes,NA,Female,English,NA,12
2915,default,block1,jon,projective,0.94,5814,inform,17,inform,C,NA,default,22,Yes,NA,Female,English,NA,13
2915,default,block1,jayden,projective,0.09,5448,think,18,think,C,NA,default,22,Yes,NA,Female,English,NA,14
2915,default,block1,sophia,projective,0.24,8875,pretend,19,pretend,C,NA,default,22,Yes,NA,Female,English,NA,15
2915,default,block1,charley,projective,0.95,25812,acknowledge,20,acknowledge,C,NA,default,22,Yes,NA,Female,English,NA,16
2915,default,block1,mary,projective,0.96,8560,be_annoyed,21,be_annoyed,C,NA,default,22,Yes,NA,Female,English,NA,17
2915,default,block1,tony,projective,0.89,5756,announce,22,announce,C,NA,default,22,Yes,NA,Female,English,NA,18
2915,default,block1,ballet,projective,0.99,6487,MC,23,MC,MC,NA,default,22,Yes,NA,Female,English,NA,19
2915,default,block1,mia,projective,0.99,7265,reveal,24,reveal,C,NA,default,22,Yes,NA,Female,English,NA,20
2915,default,block1,muffins,projective,0.98,6415,MC,25,MC,MC,NA,default,22,Yes,NA,Female,English,NA,21
2915,default,block1,emma,projective,0.51,33470,establish,26,establish,C,NA,default,22,Yes,NA,Female,English,NA,22
2915,default,block1,garage,projective,0.96,6110,MC,27,MC,MC,NA,default,22,Yes,NA,Female,English,NA,23
2915,default,block1,josh,projective,0.23,6155,confirm,28,confirm,C,NA,default,22,Yes,NA,Female,English,NA,24
2915,default,block1,hat,projective,0.96,5584,MC,29,MC,MC,NA,default,22,Yes,NA,Female,English,NA,25
2915,default,block1,danny,projective,0.19,4493,prove,30,prove,C,NA,default,22,Yes,NA,Female,English,NA,26
2915,default,block2,frank,ai,0.9299999999999999,11592,hear,32,hear,C,NA,default,22,Yes,NA,Female,English,NA,27
2915,default,block2,danny,ai,0.050000000000000044,11681,prove,33,prove,C,NA,default,22,Yes,NA,Female,English,NA,28
2915,default,block2,josie,ai,0.050000000000000044,96402,say,34,say,C,NA,default,22,Yes,NA,Female,English,NA,29
2915,default,block2,jackson,ai,0.040000000000000036,20805,suggest,35,suggest,C,NA,default,22,Yes,NA,Female,English,NA,30
2915,default,block2,ballet,ai,0.9,5632,MC,36,MC,MC,NA,default,22,Yes,NA,Female,English,NA,31
2915,default,block2,julian,ai,0.9299999999999999,5355,see,37,see,C,NA,default,22,Yes,NA,Female,English,NA,32
2915,default,block2,zoe,ai,0.9299999999999999,28311,demonstrate,38,demonstrate,C,NA,default,22,Yes,NA,Female,English,NA,33
2915,default,block2,mia,ai,0.050000000000000044,12511,reveal,39,reveal,C,NA,default,22,Yes,NA,Female,English,NA,34
2915,default,block2,garage,ai,0.040000000000000036,7623,MC,40,MC,MC,NA,default,22,Yes,NA,Female,English,NA,35
2915,default,block2,sophia,ai,0.06999999999999995,243455,pretend,41,pretend,C,NA,default,22,Yes,NA,Female,English,NA,36
2915,default,block2,hat,ai,0.040000000000000036,3999,MC,42,MC,MC,NA,default,22,Yes,NA,Female,English,NA,37
2915,default,block2,muffins,ai,0.040000000000000036,5084,MC,43,MC,MC,NA,default,22,Yes,NA,Female,English,NA,38
2915,default,block2,pizza,ai,0.97,8074,MC,44,MC,MC,NA,default,22,Yes,NA,Female,English,NA,39
2915,default,block2,kids,ai,0.9299999999999999,108146,MC,45,MC,MC,NA,default,22,Yes,NA,Female,English,NA,40
2915,default,block2,jon,ai,0.09999999999999998,5553,inform,46,inform,C,NA,default,22,Yes,NA,Female,English,NA,41
2915,default,block2,owen,ai,0.020000000000000018,5837,admit,47,admit,C,NA,default,22,Yes,NA,Female,English,NA,42
2915,default,block2,grace,ai,0.020000000000000018,6657,discover,48,discover,C,NA,default,22,Yes,NA,Female,English,NA,43
2915,default,block2,josh,ai,0.040000000000000036,6100,confirm,49,confirm,C,NA,default,22,Yes,NA,Female,English,NA,44
2915,default,block2,emily,ai,0.94,4743,be_right,50,be_right,C,NA,default,22,Yes,NA,Female,English,NA,45
2915,default,block2,mary,ai,0.040000000000000036,5673,be_annoyed,51,be_annoyed,C,NA,default,22,Yes,NA,Female,English,NA,46
2915,default,block2,isabella,ai,0.42000000000000004,9215,know,52,know,C,NA,default,22,Yes,NA,Female,English,NA,47
2915,default,block2,charley,ai,0.06000000000000005,6436,acknowledge,53,acknowledge,C,NA,default,22,Yes,NA,Female,English,NA,48
2915,default,block2,tony,ai,0.06000000000000005,70681,announce,54,announce,C,NA,default,22,Yes,NA,Female,English,NA,49
2915,default,block2,emma,ai,0.010000000000000009,51420,establish,55,establish,C,NA,default,22,Yes,NA,Female,English,NA,50
2915,default,block2,olivia,ai,0.95,5575,confess,56,confess,C,NA,default,22,Yes,NA,Female,English,NA,51
2915,default,block2,jayden,ai,0.95,5448,think,57,think,C,NA,default,22,Yes,NA,Female,English,NA,52
2948,default,block1,josie,projective,0.38,21169,know,5,know,C,NA,default,22,Yes,NA,Female,English,NA,1
2948,default,block1,kids,projective,0.97,9308,MC,6,MC,MC,NA,default,22,Yes,NA,Female,English,NA,2
2948,default,block1,zoe,projective,0.47,8403,suggest,7,suggest,C,NA,default,22,Yes,NA,Female,English,NA,3
2948,default,block1,pizza,projective,0.98,6031,MC,8,MC,MC,NA,default,22,Yes,NA,Female,English,NA,4
2948,default,block1,frank,projective,0.98,4809,prove,9,prove,C,NA,default,22,Yes,NA,Female,English,NA,5
2948,default,block1,grace,projective,0.99,4169,acknowledge,10,acknowledge,C,NA,default,22,Yes,NA,Female,English,NA,6
2948,default,block1,emma,projective,0.72,8870,discover,11,discover,C,NA,default,22,Yes,NA,Female,English,NA,7
2948,default,block1,olivia,projective,0.99,4507,announce,12,announce,C,NA,default,22,Yes,NA,Female,English,NA,8
2948,default,block1,charley,projective,0.93,5053,say,13,say,C,NA,default,22,Yes,NA,Female,English,NA,9
2948,default,block1,tony,projective,0.98,5211,be_annoyed,14,be_annoyed,C,NA,default,22,Yes,NA,Female,English,NA,10
2948,default,block1,mary,projective,0.55,12998,pretend,15,pretend,C,NA,default,22,Yes,NA,Female,English,NA,11
2948,default,block1,jayden,projective,0.32,6447,be_right,16,be_right,C,NA,default,22,Yes,NA,Female,English,NA,12
2948,default,block1,julian,projective,0.74,5262,demonstrate,17,demonstrate,C,NA,default,22,Yes,NA,Female,English,NA,13
2948,default,block1,emily,projective,0.98,4435,admit,18,admit,C,NA,default,22,Yes,NA,Female,English,NA,14
2948,default,block1,isabella,projective,0.7,7562,think,19,think,C,NA,default,22,Yes,NA,Female,English,NA,15
2948,default,block1,muffins,projective,1,4478,MC,20,MC,MC,NA,default,22,Yes,NA,Female,English,NA,16
2948,default,block1,josh,projective,0.99,5233,see,21,see,C,NA,default,22,Yes,NA,Female,English,NA,17
2948,default,block1,owen,projective,0.98,5067,hear,22,hear,C,NA,default,22,Yes,NA,Female,English,NA,18
2948,default,block1,mia,projective,1,5492,inform,23,inform,C,NA,default,22,Yes,NA,Female,English,NA,19
2948,default,block1,sophia,projective,0.98,3651,reveal,24,reveal,C,NA,default,22,Yes,NA,Female,English,NA,20
2948,default,block1,garage,projective,0.97,5859,MC,25,MC,MC,NA,default,22,Yes,NA,Female,English,NA,21
2948,default,block1,ballet,projective,0.98,5656,MC,26,MC,MC,NA,default,22,Yes,NA,Female,English,NA,22
2948,default,block1,danny,projective,0.66,8049,confirm,27,confirm,C,NA,default,22,Yes,NA,Female,English,NA,23
2948,default,block1,jackson,projective,0.98,4945,establish,28,establish,C,NA,default,22,Yes,NA,Female,English,NA,24
2948,default,block1,hat,projective,1,4348,MC,29,MC,MC,NA,default,22,Yes,NA,Female,English,NA,25
2948,default,block1,jon,projective,0.97,4442,confess,30,confess,C,NA,default,22,Yes,NA,Female,English,NA,26
2948,default,block2,jayden,ai,0.65,16122,be_right,32,be_right,C,NA,default,22,Yes,NA,Female,English,NA,27
2948,default,block2,emma,ai,0.24,6204,discover,33,discover,C,NA,default,22,Yes,NA,Female,English,NA,28
2948,default,block2,charley,ai,0.10999999999999999,4290,say,34,say,C,NA,default,22,Yes,NA,Female,English,NA,29
2948,default,block2,josh,ai,0.010000000000000009,8396,see,35,see,C,NA,default,22,Yes,NA,Female,English,NA,30
2948,default,block2,mary,ai,0.010000000000000009,7417,pretend,36,pretend,C,NA,default,22,Yes,NA,Female,English,NA,31
2948,default,block2,isabella,ai,0.91,7935,think,37,think,C,NA,default,22,Yes,NA,Female,English,NA,32
2948,default,block2,ballet,ai,0.020000000000000018,3365,MC,38,MC,MC,NA,default,22,Yes,NA,Female,English,NA,33
2948,default,block2,muffins,ai,0.030000000000000027,3091,MC,39,MC,MC,NA,default,22,Yes,NA,Female,English,NA,34
2948,default,block2,kids,ai,0.020000000000000018,6231,MC,40,MC,MC,NA,default,22,Yes,NA,Female,English,NA,35
2948,default,block2,tony,ai,0.010000000000000009,3579,be_annoyed,41,be_annoyed,C,NA,default,22,Yes,NA,Female,English,NA,36
2948,default,block2,mia,ai,0,5477,inform,42,inform,C,NA,default,22,Yes,NA,Female,English,NA,37
2948,default,block2,jon,ai,0.43000000000000005,7856,confess,43,confess,C,NA,default,22,Yes,NA,Female,English,NA,38
2948,default,block2,danny,ai,0.43000000000000005,5693,confirm,44,confirm,C,NA,default,22,Yes,NA,Female,English,NA,39
2948,default,block2,frank,ai,0.31999999999999995,5290,prove,45,prove,C,NA,default,22,Yes,NA,Female,English,NA,40
2948,default,block2,jackson,ai,0.42000000000000004,5492,establish,46,establish,C,NA,default,22,Yes,NA,Female,English,NA,41
2948,default,block2,garage,ai,0.020000000000000018,5448,MC,47,MC,MC,NA,default,22,Yes,NA,Female,English,NA,42
2948,default,block2,josie,ai,0.38,6893,know,48,know,C,NA,default,22,Yes,NA,Female,English,NA,43
2948,default,block2,hat,ai,0.26,4062,MC,49,MC,MC,NA,default,22,Yes,NA,Female,English,NA,44
2948,default,block2,grace,ai,0.10999999999999999,5527,acknowledge,50,acknowledge,C,NA,default,22,Yes,NA,Female,English,NA,45
2948,default,block2,olivia,ai,0.20999999999999996,5427,announce,51,announce,C,NA,default,22,Yes,NA,Female,English,NA,46
2948,default,block2,zoe,ai,0,7734,suggest,52,suggest,C,NA,default,22,Yes,NA,Female,English,NA,47
2948,default,block2,emily,ai,0.32999999999999996,4486,admit,53,admit,C,NA,default,22,Yes,NA,Female,English,NA,48
2948,default,block2,julian,ai,0.18999999999999995,6037,demonstrate,54,demonstrate,C,NA,default,22,Yes,NA,Female,English,NA,49
2948,default,block2,pizza,ai,0.12,3580,MC,55,MC,MC,NA,default,22,Yes,NA,Female,English,NA,50
2948,default,block2,owen,ai,0.38,11364,hear,56,hear,C,NA,default,22,Yes,NA,Female,English,NA,51
2948,default,block2,sophia,ai,0.15000000000000002,4156,reveal,57,reveal,C,NA,default,22,Yes,NA,Female,English,NA,52
2919,default,block1,sophia,projective,0.04,7789,demonstrate,5,demonstrate,C,NA,default,19,Yes,Kinda confusing sentences.,Female,English,NA,1
2919,default,block1,jon,projective,0.03,8043,think,6,think,C,NA,default,19,Yes,Kinda confusing sentences.,Female,English,NA,2
2919,default,block1,grace,projective,0.85,15794,acknowledge,7,acknowledge,C,NA,default,19,Yes,Kinda confusing sentences.,Female,English,NA,3
2919,default,block1,tony,projective,0.04,7892,know,8,know,C,NA,default,19,Yes,Kinda confusing sentences.,Female,English,NA,4
2919,default,block1,jayden,projective,0.97,7137,inform,9,inform,C,NA,default,19,Yes,Kinda confusing sentences.,Female,English,NA,5
2919,default,block1,olivia,projective,0.26,10768,say,10,say,C,NA,default,19,Yes,Kinda confusing sentences.,Female,English,NA,6
2919,default,block1,jackson,projective,0.92,4431,see,11,see,C,NA,default,19,Yes,Kinda confusing sentences.,Female,English,NA,7
2919,default,block1,emily,projective,0.1,7893,pretend,12,pretend,C,NA,default,19,Yes,Kinda confusing sentences.,Female,English,NA,8
2919,default,block1,mary,projective,0.95,6463,establish,13,establish,C,NA,default,19,Yes,Kinda confusing sentences.,Female,English,NA,9
2919,default,block1,isabella,projective,0.94,5173,prove,14,prove,C,NA,default,19,Yes,Kinda confusing sentences.,Female,English,NA,10
2919,default,block1,ballet,projective,0.97,6752,MC,15,MC,MC,NA,default,19,Yes,Kinda confusing sentences.,Female,English,NA,11
2919,default,block1,danny,projective,0.99,5971,confess,16,confess,C,NA,default,19,Yes,Kinda confusing sentences.,Female,English,NA,12
2919,default,block1,owen,projective,0.91,5267,admit,17,admit,C,NA,default,19,Yes,Kinda confusing sentences.,Female,English,NA,13
2919,default,block1,frank,projective,0.06,4724,be_right,18,be_right,C,NA,default,19,Yes,Kinda confusing sentences.,Female,English,NA,14
2919,default,block1,mia,projective,0.08,5108,suggest,19,suggest,C,NA,default,19,Yes,Kinda confusing sentences.,Female,English,NA,15
2919,default,block1,josh,projective,0.97,5314,announce,20,announce,C,NA,default,19,Yes,Kinda confusing sentences.,Female,English,NA,16
2919,default,block1,hat,projective,0.94,3509,MC,21,MC,MC,NA,default,19,Yes,Kinda confusing sentences.,Female,English,NA,17
2919,default,block1,josie,projective,0.92,4849,reveal,22,reveal,C,NA,default,19,Yes,Kinda confusing sentences.,Female,English,NA,18
2919,default,block1,emma,projective,0.05,14691,hear,23,hear,C,NA,default,19,Yes,Kinda confusing sentences.,Female,English,NA,19
2919,default,block1,kids,projective,1,8949,MC,24,MC,MC,NA,default,19,Yes,Kinda confusing sentences.,Female,English,NA,20
2919,default,block1,zoe,projective,0.99,4197,be_annoyed,25,be_annoyed,C,NA,default,19,Yes,Kinda confusing sentences.,Female,English,NA,21
2919,default,block1,julian,projective,0.96,4149,confirm,26,confirm,C,NA,default,19,Yes,Kinda confusing sentences.,Female,English,NA,22
2919,default,block1,garage,projective,0.94,3275,MC,27,MC,MC,NA,default,19,Yes,Kinda confusing sentences.,Female,English,NA,23
2919,default,block1,pizza,projective,0.94,3433,MC,28,MC,MC,NA,default,19,Yes,Kinda confusing sentences.,Female,English,NA,24
2919,default,block1,charley,projective,0.98,3991,discover,29,discover,C,NA,default,19,Yes,Kinda confusing sentences.,Female,English,NA,25
2919,default,block1,muffins,projective,0.98,4576,MC,30,MC,MC,NA,default,19,Yes,Kinda confusing sentences.,Female,English,NA,26
2919,default,block2,julian,ai,0.010000000000000009,9572,confirm,32,confirm,C,NA,default,19,Yes,Kinda confusing sentences.,Female,English,NA,27
2919,default,block2,grace,ai,0.050000000000000044,6553,acknowledge,33,acknowledge,C,NA,default,19,Yes,Kinda confusing sentences.,Female,English,NA,28
2919,default,block2,kids,ai,0.96,5625,MC,34,MC,MC,NA,default,19,Yes,Kinda confusing sentences.,Female,English,NA,29
2919,default,block2,jackson,ai,0.030000000000000027,4204,see,35,see,C,NA,default,19,Yes,Kinda confusing sentences.,Female,English,NA,30
2919,default,block2,garage,ai,0.95,5328,MC,36,MC,MC,NA,default,19,Yes,Kinda confusing sentences.,Female,English,NA,31
2919,default,block2,sophia,ai,0.91,3784,demonstrate,37,demonstrate,C,NA,default,19,Yes,Kinda confusing sentences.,Female,English,NA,32
2919,default,block2,mia,ai,0.07999999999999996,6470,suggest,38,suggest,C,NA,default,19,Yes,Kinda confusing sentences.,Female,English,NA,33
2919,default,block2,josh,ai,0,3316,announce,39,announce,C,NA,default,19,Yes,Kinda confusing sentences.,Female,English,NA,34
2919,default,block2,tony,ai,0.040000000000000036,2404,know,40,know,C,NA,default,19,Yes,Kinda confusing sentences.,Female,English,NA,35
2919,default,block2,jayden,ai,0.06000000000000005,2034,inform,41,inform,C,NA,default,19,Yes,Kinda confusing sentences.,Female,English,NA,36
2919,default,block2,zoe,ai,0.06999999999999995,5734,be_annoyed,42,be_annoyed,C,NA,default,19,Yes,Kinda confusing sentences.,Female,English,NA,37
2919,default,block2,hat,ai,0.020000000000000018,4863,MC,43,MC,MC,NA,default,19,Yes,Kinda confusing sentences.,Female,English,NA,38
2919,default,block2,mary,ai,0.040000000000000036,3487,establish,44,establish,C,NA,default,19,Yes,Kinda confusing sentences.,Female,English,NA,39
2919,default,block2,emily,ai,0.010000000000000009,1871,pretend,45,pretend,C,NA,default,19,Yes,Kinda confusing sentences.,Female,English,NA,40
2919,default,block2,danny,ai,0,2756,confess,46,confess,C,NA,default,19,Yes,Kinda confusing sentences.,Female,English,NA,41
2919,default,block2,jon,ai,0.010000000000000009,1817,think,47,think,C,NA,default,19,Yes,Kinda confusing sentences.,Female,English,NA,42
