workerid,proliferate.condition,block,content,question_type,response,rt,short_trigger,slide_number_in_experiment,trigger,trigger_class,catch_trials,subject_information.age,subject_information.american,subject_information.comments,subject_information.gender,subject_information.language,system.Browser,system.OS,system.screenH,system.screenW,time_in_minutes,error
1241,default,block1,mary,ai,0.13,29528,know,5,know,C,[],26,Yes,,Female,english,Chrome,Mac,900,1440,9.854666666666668,
1241,default,block1,olivia,ai,0.16,64126,confirm,6,confirm,C,[],26,Yes,,Female,english,Chrome,Mac,900,1440,9.854666666666668,
1241,default,block1,mia,ai,0.2,44519,suggest,7,suggest,C,[],26,Yes,,Female,english,Chrome,Mac,900,1440,9.854666666666668,
1241,default,block1,charley,ai,0.16,12904,inform,8,inform,C,[],26,Yes,,Female,english,Chrome,Mac,900,1440,9.854666666666668,
1241,default,block1,danny,ai,0.26,8143,acknowledge,9,acknowledge,C,[],26,Yes,,Female,english,Chrome,Mac,900,1440,9.854666666666668,
1241,default,block1,kids,ai,0.96,10685,MC,10,MC,MC,[],26,Yes,,Female,english,Chrome,Mac,900,1440,9.854666666666668,
1241,default,block1,frank,ai,0.04,7032,think,11,think,C,[],26,Yes,,Female,english,Chrome,Mac,900,1440,9.854666666666668,
1241,default,block1,grace,ai,0.11,5946,discover,12,discover,C,[],26,Yes,,Female,english,Chrome,Mac,900,1440,9.854666666666668,
1241,default,block1,josh,ai,0.15,7267,reveal,13,reveal,C,[],26,Yes,,Female,english,Chrome,Mac,900,1440,9.854666666666668,
1241,default,block1,owen,ai,0.07,6276,demonstrate,14,demonstrate,C,[],26,Yes,,Female,english,Chrome,Mac,900,1440,9.854666666666668,
1241,default,block1,isabella,ai,0.07,5611,prove,15,prove,C,[],26,Yes,,Female,english,Chrome,Mac,900,1440,9.854666666666668,
1241,default,block1,emily,ai,0.12,6046,see,16,see,C,[],26,Yes,,Female,english,Chrome,Mac,900,1440,9.854666666666668,
1241,default,block1,pizza,ai,0.95,7298,MC,17,MC,MC,[],26,Yes,,Female,english,Chrome,Mac,900,1440,9.854666666666668,
1241,default,block1,jon,ai,0.07,6650,establish,18,establish,C,[],26,Yes,,Female,english,Chrome,Mac,900,1440,9.854666666666668,
1241,default,block1,hat,ai,0.95,5936,MC,19,MC,MC,[],26,Yes,,Female,english,Chrome,Mac,900,1440,9.854666666666668,
1241,default,block1,ballet,ai,0.95,7541,MC,20,MC,MC,[],26,Yes,,Female,english,Chrome,Mac,900,1440,9.854666666666668,
1241,default,block1,muffins,ai,0.96,4842,MC,21,MC,MC,[],26,Yes,,Female,english,Chrome,Mac,900,1440,9.854666666666668,
1241,default,block1,sophia,ai,0.1,11136,confess,22,confess,C,[],26,Yes,,Female,english,Chrome,Mac,900,1440,9.854666666666668,
1241,default,block1,emma,ai,0.15,5114,pretend,23,pretend,C,[],26,Yes,,Female,english,Chrome,Mac,900,1440,9.854666666666668,
1241,default,block1,julian,ai,0.18,4766,be_annoyed,24,be_annoyed,C,[],26,Yes,,Female,english,Chrome,Mac,900,1440,9.854666666666668,
1241,default,block1,tony,ai,0.29,15703,be_right,25,be_right,C,[],26,Yes,,Female,english,Chrome,Mac,900,1440,9.854666666666668,
1241,default,block1,zoe,ai,0.18,4104,admit,26,admit,C,[],26,Yes,,Female,english,Chrome,Mac,900,1440,9.854666666666668,
1241,default,block1,jayden,ai,0.18,6871,announce,27,announce,C,[],26,Yes,,Female,english,Chrome,Mac,900,1440,9.854666666666668,
1241,default,block1,garage,ai,0.92,6132,MC,28,MC,MC,[],26,Yes,,Female,english,Chrome,Mac,900,1440,9.854666666666668,
1241,default,block1,jackson,ai,0.15,5652,say,29,say,C,[],26,Yes,,Female,english,Chrome,Mac,900,1440,9.854666666666668,
1241,default,block1,josie,ai,0.27,4987,hear,30,hear,C,[],26,Yes,,Female,english,Chrome,Mac,900,1440,9.854666666666668,
1241,default,block2,emily,projective,0.6,13295,see,32,see,C,[],26,Yes,,Female,english,Chrome,Mac,900,1440,9.854666666666668,
1241,default,block2,garage,projective,0.98,7763,MC,33,MC,MC,[],26,Yes,,Female,english,Chrome,Mac,900,1440,9.854666666666668,
1241,default,block2,zoe,projective,0.58,8160,admit,34,admit,C,[],26,Yes,,Female,english,Chrome,Mac,900,1440,9.854666666666668,
1241,default,block2,julian,projective,0.95,10261,be_annoyed,35,be_annoyed,C,[],26,Yes,,Female,english,Chrome,Mac,900,1440,9.854666666666668,
1241,default,block2,grace,projective,0.97,37337,discover,36,discover,C,[],26,Yes,,Female,english,Chrome,Mac,900,1440,9.854666666666668,
1241,default,block2,jon,projective,0.92,5948,establish,37,establish,C,[],26,Yes,,Female,english,Chrome,Mac,900,1440,9.854666666666668,
1241,default,block2,isabella,projective,0.37,6618,prove,38,prove,C,[],26,Yes,,Female,english,Chrome,Mac,900,1440,9.854666666666668,
1241,default,block2,josh,projective,0.87,6909,reveal,39,reveal,C,[],26,Yes,,Female,english,Chrome,Mac,900,1440,9.854666666666668,
1241,default,block2,josie,projective,0.51,9709,hear,40,hear,C,[],26,Yes,,Female,english,Chrome,Mac,900,1440,9.854666666666668,
1241,default,block2,owen,projective,0.16,6788,demonstrate,41,demonstrate,C,[],26,Yes,,Female,english,Chrome,Mac,900,1440,9.854666666666668,
1241,default,block2,mia,projective,0.2,4204,suggest,42,suggest,C,[],26,Yes,,Female,english,Chrome,Mac,900,1440,9.854666666666668,
1241,default,block2,mary,projective,0.51,9147,know,43,know,C,[],26,Yes,,Female,english,Chrome,Mac,900,1440,9.854666666666668,
1241,default,block2,kids,projective,0.97,5469,MC,44,MC,MC,[],26,Yes,,Female,english,Chrome,Mac,900,1440,9.854666666666668,
1241,default,block2,emma,projective,0.12,4876,pretend,45,pretend,C,[],26,Yes,,Female,english,Chrome,Mac,900,1440,9.854666666666668,
1241,default,block2,tony,projective,0.24,5044,be_right,46,be_right,C,[],26,Yes,,Female,english,Chrome,Mac,900,1440,9.854666666666668,
1241,default,block2,olivia,projective,0.63,4543,confirm,47,confirm,C,[],26,Yes,,Female,english,Chrome,Mac,900,1440,9.854666666666668,
1241,default,block2,charley,projective,0.39,7169,inform,48,inform,C,[],26,Yes,,Female,english,Chrome,Mac,900,1440,9.854666666666668,
1241,default,block2,danny,projective,0.66,4720,acknowledge,49,acknowledge,C,[],26,Yes,,Female,english,Chrome,Mac,900,1440,9.854666666666668,
1241,default,block2,frank,projective,0.28,9751,think,50,think,C,[],26,Yes,,Female,english,Chrome,Mac,900,1440,9.854666666666668,
1241,default,block2,jackson,projective,0.46,3865,say,51,say,C,[],26,Yes,,Female,english,Chrome,Mac,900,1440,9.854666666666668,
1241,default,block2,pizza,projective,0.97,7423,MC,52,MC,MC,[],26,Yes,,Female,english,Chrome,Mac,900,1440,9.854666666666668,
1241,default,block2,muffins,projective,0.98,4442,MC,53,MC,MC,[],26,Yes,,Female,english,Chrome,Mac,900,1440,9.854666666666668,
1241,default,block2,jayden,projective,0.67,6953,announce,54,announce,C,[],26,Yes,,Female,english,Chrome,Mac,900,1440,9.854666666666668,
1241,default,block2,hat,projective,0.96,3501,MC,55,MC,MC,[],26,Yes,,Female,english,Chrome,Mac,900,1440,9.854666666666668,
1241,default,block2,sophia,projective,0.75,4462,confess,56,confess,C,[],26,Yes,,Female,english,Chrome,Mac,900,1440,9.854666666666668,
1241,default,block2,ballet,projective,0.96,5819,MC,57,MC,MC,[],26,Yes,,Female,english,Chrome,Mac,900,1440,9.854666666666668,
1460,default,block1,emma,projective,0.97,25702,hear,5,hear,C,[],34,Yes,,Female,English,Chrome,Windows,1080,1920,34.91758333333333,
1460,default,block1,charley,projective,1,136626,know,6,know,C,[],34,Yes,,Female,English,Chrome,Windows,1080,1920,34.91758333333333,
1460,default,block1,mia,projective,0.95,57807,see,7,see,C,[],34,Yes,,Female,English,Chrome,Windows,1080,1920,34.91758333333333,
1460,default,block1,jackson,projective,0.99,24636,confirm,8,confirm,C,[],34,Yes,,Female,English,Chrome,Windows,1080,1920,34.91758333333333,
1460,default,block1,josh,projective,1,14995,reveal,9,reveal,C,[],34,Yes,,Female,English,Chrome,Windows,1080,1920,34.91758333333333,
1460,default,block1,danny,projective,0.02,78067,suggest,10,suggest,C,[],34,Yes,,Female,English,Chrome,Windows,1080,1920,34.91758333333333,
1460,default,block1,frank,projective,0.04,6523,be_right,11,be_right,C,[],34,Yes,,Female,English,Chrome,Windows,1080,1920,34.91758333333333,
1460,default,block1,muffins,projective,0.95,4908,MC,12,MC,MC,[],34,Yes,,Female,English,Chrome,Windows,1080,1920,34.91758333333333,
1460,default,block1,pizza,projective,0.97,3766,MC,13,MC,MC,[],34,Yes,,Female,English,Chrome,Windows,1080,1920,34.91758333333333,
1460,default,block1,hat,projective,0.97,5287,MC,14,MC,MC,[],34,Yes,,Female,English,Chrome,Windows,1080,1920,34.91758333333333,
1460,default,block1,jon,projective,0.96,13156,say,15,say,C,[],34,Yes,,Female,English,Chrome,Windows,1080,1920,34.91758333333333,
1460,default,block1,kids,projective,0.96,10392,MC,16,MC,MC,[],34,Yes,,Female,English,Chrome,Windows,1080,1920,34.91758333333333,
1460,default,block1,isabella,projective,1,67676,discover,17,discover,C,[],34,Yes,,Female,English,Chrome,Windows,1080,1920,34.91758333333333,
1460,default,block1,tony,projective,1,54199,demonstrate,18,demonstrate,C,[],34,Yes,,Female,English,Chrome,Windows,1080,1920,34.91758333333333,
1460,default,block1,mary,projective,1,6571,inform,19,inform,C,[],34,Yes,,Female,English,Chrome,Windows,1080,1920,34.91758333333333,
1460,default,block1,josie,projective,0.11,5681,acknowledge,20,acknowledge,C,[],34,Yes,,Female,English,Chrome,Windows,1080,1920,34.91758333333333,
1460,default,block1,garage,projective,0.64,24223,MC,21,MC,MC,[],34,Yes,,Female,English,Chrome,Windows,1080,1920,34.91758333333333,
1460,default,block1,julian,projective,0.9,5863,confess,22,confess,C,[],34,Yes,,Female,English,Chrome,Windows,1080,1920,34.91758333333333,
1460,default,block1,sophia,projective,0.01,48220,prove,23,prove,C,[],34,Yes,,Female,English,Chrome,Windows,1080,1920,34.91758333333333,
1460,default,block1,grace,projective,0.88,9119,be_annoyed,24,be_annoyed,C,[],34,Yes,,Female,English,Chrome,Windows,1080,1920,34.91758333333333,
1460,default,block1,emily,projective,0.1,38654,think,25,think,C,[],34,Yes,,Female,English,Chrome,Windows,1080,1920,34.91758333333333,
1460,default,block1,ballet,projective,0.97,5744,MC,26,MC,MC,[],34,Yes,,Female,English,Chrome,Windows,1080,1920,34.91758333333333,
1460,default,block1,olivia,projective,0.99,5895,announce,27,announce,C,[],34,Yes,,Female,English,Chrome,Windows,1080,1920,34.91758333333333,
1460,default,block1,zoe,projective,0.79,4807,establish,28,establish,C,[],34,Yes,,Female,English,Chrome,Windows,1080,1920,34.91758333333333,
1460,default,block1,owen,projective,0.85,10304,admit,29,admit,C,[],34,Yes,,Female,English,Chrome,Windows,1080,1920,34.91758333333333,
1460,default,block1,jayden,projective,0.03,12291,pretend,30,pretend,C,[],34,Yes,,Female,English,Chrome,Windows,1080,1920,34.91758333333333,
1460,default,block2,grace,ai,0.9,23447,be_annoyed,32,be_annoyed,C,[],34,Yes,,Female,English,Chrome,Windows,1080,1920,34.91758333333333,
1460,default,block2,muffins,ai,0.99,28204,MC,33,MC,MC,[],34,Yes,,Female,English,Chrome,Windows,1080,1920,34.91758333333333,
1460,default,block2,ballet,ai,1,8618,MC,34,MC,MC,[],34,Yes,,Female,English,Chrome,Windows,1080,1920,34.91758333333333,
1460,default,block2,jon,ai,0.04,7890,say,35,say,C,[],34,Yes,,Female,English,Chrome,Windows,1080,1920,34.91758333333333,
1460,default,block2,mary,ai,0.8,71475,inform,36,inform,C,[],34,Yes,,Female,English,Chrome,Windows,1080,1920,34.91758333333333,
1460,default,block2,isabella,ai,0.09,21456,discover,37,discover,C,[],34,Yes,,Female,English,Chrome,Windows,1080,1920,34.91758333333333,
1460,default,block2,kids,ai,0.87,41818,MC,38,MC,MC,[],34,Yes,,Female,English,Chrome,Windows,1080,1920,34.91758333333333,
1460,default,block2,danny,ai,0.04,13384,suggest,39,suggest,C,[],34,Yes,,Female,English,Chrome,Windows,1080,1920,34.91758333333333,
1460,default,block2,charley,ai,0.06,7648,know,40,know,C,[],34,Yes,,Female,English,Chrome,Windows,1080,1920,34.91758333333333,
1460,default,block2,hat,ai,0.98,8912,MC,41,MC,MC,[],34,Yes,,Female,English,Chrome,Windows,1080,1920,34.91758333333333,
1460,default,block2,owen,ai,0.04,7623,admit,42,admit,C,[],34,Yes,,Female,English,Chrome,Windows,1080,1920,34.91758333333333,
1460,default,block2,garage,ai,1,6207,MC,43,MC,MC,[],34,Yes,,Female,English,Chrome,Windows,1080,1920,34.91758333333333,
1460,default,block2,emma,ai,0.03,4239,hear,44,hear,C,[],34,Yes,,Female,English,Chrome,Windows,1080,1920,34.91758333333333,
1460,default,block2,josie,ai,0.04,3412,acknowledge,45,acknowledge,C,[],34,Yes,,Female,English,Chrome,Windows,1080,1920,34.91758333333333,
1460,default,block2,josh,ai,0.04,3492,reveal,46,reveal,C,[],34,Yes,,Female,English,Chrome,Windows,1080,1920,34.91758333333333,
1460,default,block2,frank,ai,0.04,10484,be_right,47,be_right,C,[],34,Yes,,Female,English,Chrome,Windows,1080,1920,34.91758333333333,
1460,default,block2,pizza,ai,1,4324,MC,48,MC,MC,[],34,Yes,,Female,English,Chrome,Windows,1080,1920,34.91758333333333,
1460,default,block2,sophia,ai,0.88,7452,prove,49,prove,C,[],34,Yes,,Female,English,Chrome,Windows,1080,1920,34.91758333333333,
1460,default,block2,mia,ai,0.05,4792,see,50,see,C,[],34,Yes,,Female,English,Chrome,Windows,1080,1920,34.91758333333333,
1460,default,block2,emily,ai,0.02,8024,think,51,think,C,[],34,Yes,,Female,English,Chrome,Windows,1080,1920,34.91758333333333,
1460,default,block2,olivia,ai,0.22,118374,announce,52,announce,C,[],34,Yes,,Female,English,Chrome,Windows,1080,1920,34.91758333333333,
1460,default,block2,zoe,ai,0.08,9368,establish,53,establish,C,[],34,Yes,,Female,English,Chrome,Windows,1080,1920,34.91758333333333,
1460,default,block2,jackson,ai,0.07,7496,confirm,54,confirm,C,[],34,Yes,,Female,English,Chrome,Windows,1080,1920,34.91758333333333,
1460,default,block2,jayden,ai,0.02,5608,pretend,55,pretend,C,[],34,Yes,,Female,English,Chrome,Windows,1080,1920,34.91758333333333,
1460,default,block2,julian,ai,0.73,3944,confess,56,confess,C,[],34,Yes,,Female,English,Chrome,Windows,1080,1920,34.91758333333333,
1460,default,block2,tony,ai,0.06,3688,demonstrate,57,demonstrate,C,[],34,Yes,,Female,English,Chrome,Windows,1080,1920,34.91758333333333,
1181,default,block1,zoe,projective,0,25369,hear,5,hear,C,[],33,Yes,Thank you for letting me participate!,Female,English,Chrome,Mac,900,1440,12.068733333333334,
1181,default,block1,mia,projective,0,15631,be_right,6,be_right,C,[],33,Yes,Thank you for letting me participate!,Female,English,Chrome,Mac,900,1440,12.068733333333334,
1181,default,block1,hat,projective,1,10023,MC,7,MC,MC,[],33,Yes,Thank you for letting me participate!,Female,English,Chrome,Mac,900,1440,12.068733333333334,
1181,default,block1,josh,projective,0,10575,demonstrate,8,demonstrate,C,[],33,Yes,Thank you for letting me participate!,Female,English,Chrome,Mac,900,1440,12.068733333333334,
1181,default,block1,jayden,projective,0.87,29424,reveal,9,reveal,C,[],33,Yes,Thank you for letting me participate!,Female,English,Chrome,Mac,900,1440,12.068733333333334,
1181,default,block1,pizza,projective,1,9043,MC,10,MC,MC,[],33,Yes,Thank you for letting me participate!,Female,English,Chrome,Mac,900,1440,12.068733333333334,
1181,default,block1,mary,projective,0.12,11135,inform,11,inform,C,[],33,Yes,Thank you for letting me participate!,Female,English,Chrome,Mac,900,1440,12.068733333333334,
1181,default,block1,charley,projective,0.09,11112,prove,12,prove,C,[],33,Yes,Thank you for letting me participate!,Female,English,Chrome,Mac,900,1440,12.068733333333334,
1181,default,block1,jon,projective,0.09,10807,see,13,see,C,[],33,Yes,Thank you for letting me participate!,Female,English,Chrome,Mac,900,1440,12.068733333333334,
1181,default,block1,jackson,projective,1,9701,admit,14,admit,C,[],33,Yes,Thank you for letting me participate!,Female,English,Chrome,Mac,900,1440,12.068733333333334,
1181,default,block1,garage,projective,0.99,10198,MC,15,MC,MC,[],33,Yes,Thank you for letting me participate!,Female,English,Chrome,Mac,900,1440,12.068733333333334,
1181,default,block1,danny,projective,0.82,52697,know,16,know,C,[],33,Yes,Thank you for letting me participate!,Female,English,Chrome,Mac,900,1440,12.068733333333334,
1181,default,block1,josie,projective,0.09,16335,think,17,think,C,[],33,Yes,Thank you for letting me participate!,Female,English,Chrome,Mac,900,1440,12.068733333333334,
1181,default,block1,olivia,projective,0.86,14096,be_annoyed,18,be_annoyed,C,[],33,Yes,Thank you for letting me participate!,Female,English,Chrome,Mac,900,1440,12.068733333333334,
1181,default,block1,sophia,projective,0.97,9238,discover,19,discover,C,[],33,Yes,Thank you for letting me participate!,Female,English,Chrome,Mac,900,1440,12.068733333333334,
1181,default,block1,frank,projective,0.09,10902,establish,20,establish,C,[],33,Yes,Thank you for letting me participate!,Female,English,Chrome,Mac,900,1440,12.068733333333334,
1181,default,block1,emma,projective,0.1,13062,suggest,21,suggest,C,[],33,Yes,Thank you for letting me participate!,Female,English,Chrome,Mac,900,1440,12.068733333333334,
1181,default,block1,tony,projective,0.03,7674,confirm,22,confirm,C,[],33,Yes,Thank you for letting me participate!,Female,English,Chrome,Mac,900,1440,12.068733333333334,
1181,default,block1,muffins,projective,0.97,7716,MC,23,MC,MC,[],33,Yes,Thank you for letting me participate!,Female,English,Chrome,Mac,900,1440,12.068733333333334,
1181,default,block1,ballet,projective,0.97,7526,MC,24,MC,MC,[],33,Yes,Thank you for letting me participate!,Female,English,Chrome,Mac,900,1440,12.068733333333334,
1181,default,block1,isabella,projective,0.06,8563,acknowledge,25,acknowledge,C,[],33,Yes,Thank you for letting me participate!,Female,English,Chrome,Mac,900,1440,12.068733333333334,
1181,default,block1,kids,projective,0.98,10429,MC,26,MC,MC,[],33,Yes,Thank you for letting me participate!,Female,English,Chrome,Mac,900,1440,12.068733333333334,
1181,default,block1,emily,projective,0.02,11183,pretend,27,pretend,C,[],33,Yes,Thank you for letting me participate!,Female,English,Chrome,Mac,900,1440,12.068733333333334,
1181,default,block1,owen,projective,0.91,19954,confess,28,confess,C,[],33,Yes,Thank you for letting me participate!,Female,English,Chrome,Mac,900,1440,12.068733333333334,
1181,default,block1,julian,projective,0.84,14334,announce,29,announce,C,[],33,Yes,Thank you for letting me participate!,Female,English,Chrome,Mac,900,1440,12.068733333333334,
1181,default,block1,grace,projective,0.13,20313,say,30,say,C,[],33,Yes,Thank you for letting me participate!,Female,English,Chrome,Mac,900,1440,12.068733333333334,
1181,default,block2,ballet,ai,0.97,10778,MC,32,MC,MC,[],33,Yes,Thank you for letting me participate!,Female,English,Chrome,Mac,900,1440,12.068733333333334,
1181,default,block2,danny,ai,0.03,10941,know,33,know,C,[],33,Yes,Thank you for letting me participate!,Female,English,Chrome,Mac,900,1440,12.068733333333334,
1181,default,block2,sophia,ai,0.03,17107,discover,34,discover,C,[],33,Yes,Thank you for letting me participate!,Female,English,Chrome,Mac,900,1440,12.068733333333334,
1181,default,block2,garage,ai,0.99,7667,MC,35,MC,MC,[],33,Yes,Thank you for letting me participate!,Female,English,Chrome,Mac,900,1440,12.068733333333334,
1181,default,block2,kids,ai,1,12728,MC,36,MC,MC,[],33,Yes,Thank you for letting me participate!,Female,English,Chrome,Mac,900,1440,12.068733333333334,
1181,default,block2,owen,ai,0,10209,confess,37,confess,C,[],33,Yes,Thank you for letting me participate!,Female,English,Chrome,Mac,900,1440,12.068733333333334,
1181,default,block2,jackson,ai,0,10726,admit,38,admit,C,[],33,Yes,Thank you for letting me participate!,Female,English,Chrome,Mac,900,1440,12.068733333333334,
1181,default,block2,jayden,ai,0,10425,reveal,39,reveal,C,[],33,Yes,Thank you for letting me participate!,Female,English,Chrome,Mac,900,1440,12.068733333333334,
1181,default,block2,olivia,ai,0,8167,be_annoyed,40,be_annoyed,C,[],33,Yes,Thank you for letting me participate!,Female,English,Chrome,Mac,900,1440,12.068733333333334,
1181,default,block2,mia,ai,0,10865,be_right,41,be_right,C,[],33,Yes,Thank you for letting me participate!,Female,English,Chrome,Mac,900,1440,12.068733333333334,
1181,default,block2,tony,ai,0,10865,confirm,42,confirm,C,[],33,Yes,Thank you for letting me participate!,Female,English,Chrome,Mac,900,1440,12.068733333333334,
1181,default,block2,julian,ai,0,7333,announce,43,announce,C,[],33,Yes,Thank you for letting me participate!,Female,English,Chrome,Mac,900,1440,12.068733333333334,
1181,default,block2,frank,ai,0,8741,establish,44,establish,C,[],33,Yes,Thank you for letting me participate!,Female,English,Chrome,Mac,900,1440,12.068733333333334,
1181,default,block2,josie,ai,0,10089,think,45,think,C,[],33,Yes,Thank you for letting me participate!,Female,English,Chrome,Mac,900,1440,12.068733333333334,
1181,default,block2,charley,ai,0,6843,prove,46,prove,C,[],33,Yes,Thank you for letting me participate!,Female,English,Chrome,Mac,900,1440,12.068733333333334,
1181,default,block2,josh,ai,0,10318,demonstrate,47,demonstrate,C,[],33,Yes,Thank you for letting me participate!,Female,English,Chrome,Mac,900,1440,12.068733333333334,
1181,default,block2,pizza,ai,1,5329,MC,48,MC,MC,[],33,Yes,Thank you for letting me participate!,Female,English,Chrome,Mac,900,1440,12.068733333333334,
1181,default,block2,zoe,ai,0,6878,hear,49,hear,C,[],33,Yes,Thank you for letting me participate!,Female,English,Chrome,Mac,900,1440,12.068733333333334,
1181,default,block2,emily,ai,0,6394,pretend,50,pretend,C,[],33,Yes,Thank you for letting me participate!,Female,English,Chrome,Mac,900,1440,12.068733333333334,
1181,default,block2,grace,ai,0,5873,say,51,say,C,[],33,Yes,Thank you for letting me participate!,Female,English,Chrome,Mac,900,1440,12.068733333333334,
1181,default,block2,jon,ai,0,7264,see,52,see,C,[],33,Yes,Thank you for letting me participate!,Female,English,Chrome,Mac,900,1440,12.068733333333334,
1181,default,block2,emma,ai,0,6531,suggest,53,suggest,C,[],33,Yes,Thank you for letting me participate!,Female,English,Chrome,Mac,900,1440,12.068733333333334,
1181,default,block2,muffins,ai,1,5052,MC,54,MC,MC,[],33,Yes,Thank you for letting me participate!,Female,English,Chrome,Mac,900,1440,12.068733333333334,
1181,default,block2,mary,ai,0,5341,inform,55,inform,C,[],33,Yes,Thank you for letting me participate!,Female,English,Chrome,Mac,900,1440,12.068733333333334,
1181,default,block2,isabella,ai,0,6079,acknowledge,56,acknowledge,C,[],33,Yes,Thank you for letting me participate!,Female,English,Chrome,Mac,900,1440,12.068733333333334,
1181,default,block2,hat,ai,1,6527,MC,57,MC,MC,[],33,Yes,Thank you for letting me participate!,Female,English,Chrome,Mac,900,1440,12.068733333333334,
1414,default,block1,emma,projective,0.96,20248,know,5,know,C,[],28,Yes,,Female,English,Chrome,Windows,720,1280,14.127483333333334,
1414,default,block1,garage,projective,0.98,12771,MC,6,MC,MC,[],28,Yes,,Female,English,Chrome,Windows,720,1280,14.127483333333334,
1414,default,block1,charley,projective,0.96,9998,reveal,7,reveal,C,[],28,Yes,,Female,English,Chrome,Windows,720,1280,14.127483333333334,
1414,default,block1,josh,projective,0.97,10021,hear,8,hear,C,[],28,Yes,,Female,English,Chrome,Windows,720,1280,14.127483333333334,
1414,default,block1,zoe,projective,0.99,15058,establish,9,establish,C,[],28,Yes,,Female,English,Chrome,Windows,720,1280,14.127483333333334,
1414,default,block1,grace,projective,0.99,41161,acknowledge,10,acknowledge,C,[],28,Yes,,Female,English,Chrome,Windows,720,1280,14.127483333333334,
1414,default,block1,pizza,projective,0.97,10187,MC,11,MC,MC,[],28,Yes,,Female,English,Chrome,Windows,720,1280,14.127483333333334,
1414,default,block1,hat,projective,0.99,5480,MC,12,MC,MC,[],28,Yes,,Female,English,Chrome,Windows,720,1280,14.127483333333334,
1414,default,block1,josie,projective,0.36,9151,be_right,13,be_right,C,[],28,Yes,,Female,English,Chrome,Windows,720,1280,14.127483333333334,
1414,default,block1,jackson,projective,0.99,6241,discover,14,discover,C,[],28,Yes,,Female,English,Chrome,Windows,720,1280,14.127483333333334,
1414,default,block1,emily,projective,1,6704,confess,15,confess,C,[],28,Yes,,Female,English,Chrome,Windows,720,1280,14.127483333333334,
1414,default,block1,julian,projective,0.13,9767,think,16,think,C,[],28,Yes,,Female,English,Chrome,Windows,720,1280,14.127483333333334,
1414,default,block1,kids,projective,0.99,6307,MC,17,MC,MC,[],28,Yes,,Female,English,Chrome,Windows,720,1280,14.127483333333334,
1414,default,block1,muffins,projective,0.98,4568,MC,18,MC,MC,[],28,Yes,,Female,English,Chrome,Windows,720,1280,14.127483333333334,
1414,default,block1,tony,projective,1,8514,inform,19,inform,C,[],28,Yes,,Female,English,Chrome,Windows,720,1280,14.127483333333334,
1414,default,block1,mia,projective,0.99,8507,demonstrate,20,demonstrate,C,[],28,Yes,,Female,English,Chrome,Windows,720,1280,14.127483333333334,
1414,default,block1,jayden,projective,0.36,9658,confirm,21,confirm,C,[],28,Yes,,Female,English,Chrome,Windows,720,1280,14.127483333333334,
1414,default,block1,sophia,projective,0.98,5206,announce,22,announce,C,[],28,Yes,,Female,English,Chrome,Windows,720,1280,14.127483333333334,
1414,default,block1,frank,projective,0.99,6610,see,23,see,C,[],28,Yes,,Female,English,Chrome,Windows,720,1280,14.127483333333334,
1414,default,block1,isabella,projective,0.5,6624,say,24,say,C,[],28,Yes,,Female,English,Chrome,Windows,720,1280,14.127483333333334,
1414,default,block1,danny,projective,0.28,8023,suggest,25,suggest,C,[],28,Yes,,Female,English,Chrome,Windows,720,1280,14.127483333333334,
1414,default,block1,mary,projective,0.01,7110,pretend,26,pretend,C,[],28,Yes,,Female,English,Chrome,Windows,720,1280,14.127483333333334,
1414,default,block1,ballet,projective,0.97,15364,MC,27,MC,MC,[],28,Yes,,Female,English,Chrome,Windows,720,1280,14.127483333333334,
1414,default,block1,olivia,projective,0.65,21470,admit,28,admit,C,[],28,Yes,,Female,English,Chrome,Windows,720,1280,14.127483333333334,
1414,default,block1,jon,projective,0.99,36658,be_annoyed,29,be_annoyed,C,[],28,Yes,,Female,English,Chrome,Windows,720,1280,14.127483333333334,
1414,default,block1,owen,projective,0.01,63006,prove,30,prove,C,[],28,Yes,,Female,English,Chrome,Windows,720,1280,14.127483333333334,
1414,default,block2,garage,ai,0.97,12791,MC,32,MC,MC,[],28,Yes,,Female,English,Chrome,Windows,720,1280,14.127483333333334,
1414,default,block2,mary,ai,0,12582,pretend,33,pretend,C,[],28,Yes,,Female,English,Chrome,Windows,720,1280,14.127483333333334,
1414,default,block2,muffins,ai,0.99,8146,MC,34,MC,MC,[],28,Yes,,Female,English,Chrome,Windows,720,1280,14.127483333333334,
1414,default,block2,isabella,ai,0.01,8529,say,35,say,C,[],28,Yes,,Female,English,Chrome,Windows,720,1280,14.127483333333334,
1414,default,block2,tony,ai,0.01,7066,inform,36,inform,C,[],28,Yes,,Female,English,Chrome,Windows,720,1280,14.127483333333334,
1414,default,block2,josh,ai,0.01,8304,hear,37,hear,C,[],28,Yes,,Female,English,Chrome,Windows,720,1280,14.127483333333334,
1414,default,block2,olivia,ai,0.02,7304,admit,38,admit,C,[],28,Yes,,Female,English,Chrome,Windows,720,1280,14.127483333333334,
1414,default,block2,zoe,ai,0.03,9962,establish,39,establish,C,[],28,Yes,,Female,English,Chrome,Windows,720,1280,14.127483333333334,
1414,default,block2,sophia,ai,0.01,9991,announce,40,announce,C,[],28,Yes,,Female,English,Chrome,Windows,720,1280,14.127483333333334,
1414,default,block2,grace,ai,0.02,11882,acknowledge,41,acknowledge,C,[],28,Yes,,Female,English,Chrome,Windows,720,1280,14.127483333333334,
1414,default,block2,hat,ai,0.99,6782,MC,42,MC,MC,[],28,Yes,,Female,English,Chrome,Windows,720,1280,14.127483333333334,
1414,default,block2,pizza,ai,0.98,4735,MC,43,MC,MC,[],28,Yes,,Female,English,Chrome,Windows,720,1280,14.127483333333334,
1414,default,block2,jackson,ai,0.01,5813,discover,44,discover,C,[],28,Yes,,Female,English,Chrome,Windows,720,1280,14.127483333333334,
1414,default,block2,charley,ai,0.97,6691,reveal,45,reveal,C,[],28,Yes,,Female,English,Chrome,Windows,720,1280,14.127483333333334,
1414,default,block2,josie,ai,0.01,7384,be_right,46,be_right,C,[],28,Yes,,Female,English,Chrome,Windows,720,1280,14.127483333333334,
1414,default,block2,emily,ai,0.97,5929,confess,47,confess,C,[],28,Yes,,Female,English,Chrome,Windows,720,1280,14.127483333333334,
1414,default,block2,mia,ai,0,4496,demonstrate,48,demonstrate,C,[],28,Yes,,Female,English,Chrome,Windows,720,1280,14.127483333333334,
1414,default,block2,jon,ai,0,3982,be_annoyed,49,be_annoyed,C,[],28,Yes,,Female,English,Chrome,Windows,720,1280,14.127483333333334,
1414,default,block2,danny,ai,0.01,6357,suggest,50,suggest,C,[],28,Yes,,Female,English,Chrome,Windows,720,1280,14.127483333333334,
1414,default,block2,emma,ai,0.02,43918,know,51,know,C,[],28,Yes,,Female,English,Chrome,Windows,720,1280,14.127483333333334,
1414,default,block2,ballet,ai,0.94,12344,MC,52,MC,MC,[],28,Yes,,Female,English,Chrome,Windows,720,1280,14.127483333333334,
1414,default,block2,kids,ai,0.98,53692,MC,53,MC,MC,[],28,Yes,,Female,English,Chrome,Windows,720,1280,14.127483333333334,
1414,default,block2,owen,ai,0.02,12865,prove,54,prove,C,[],28,Yes,,Female,English,Chrome,Windows,720,1280,14.127483333333334,
1414,default,block2,frank,ai,0.97,42564,see,55,see,C,[],28,Yes,,Female,English,Chrome,Windows,720,1280,14.127483333333334,
1414,default,block2,julian,ai,0.01,23958,think,56,think,C,[],28,Yes,,Female,English,Chrome,Windows,720,1280,14.127483333333334,
1414,default,block2,jayden,ai,0.02,59749,confirm,57,confirm,C,[],28,Yes,,Female,English,Chrome,Windows,720,1280,14.127483333333334,
1342,default,block1,emily,ai,0.6,21916,confirm,5,confirm,C,[],25,Yes,,Female,English,Chrome,Windows,768,1366,32.14255,
1342,default,block1,mary,ai,0.52,98105,be_annoyed,6,be_annoyed,C,[],25,Yes,,Female,English,Chrome,Windows,768,1366,32.14255,
1342,default,block1,josh,ai,0.48,29312,say,7,say,C,[],25,Yes,,Female,English,Chrome,Windows,768,1366,32.14255,
1342,default,block1,ballet,ai,1,48791,MC,8,MC,MC,[],25,Yes,,Female,English,Chrome,Windows,768,1366,32.14255,
1342,default,block1,jon,ai,0.57,7866,admit,9,admit,C,[],25,Yes,,Female,English,Chrome,Windows,768,1366,32.14255,
1342,default,block1,hat,ai,1,191064,MC,10,MC,MC,[],25,Yes,,Female,English,Chrome,Windows,768,1366,32.14255,
1342,default,block1,muffins,ai,1,7482,MC,11,MC,MC,[],25,Yes,,Female,English,Chrome,Windows,768,1366,32.14255,
1342,default,block1,isabella,ai,0.53,29878,suggest,12,suggest,C,[],25,Yes,,Female,English,Chrome,Windows,768,1366,32.14255,
1342,default,block1,owen,ai,0.58,15561,announce,13,announce,C,[],25,Yes,,Female,English,Chrome,Windows,768,1366,32.14255,
1342,default,block1,sophia,ai,0.49,6858,prove,14,prove,C,[],25,Yes,,Female,English,Chrome,Windows,768,1366,32.14255,
1342,default,block1,grace,ai,0.47,141612,see,15,see,C,[],25,Yes,,Female,English,Chrome,Windows,768,1366,32.14255,
1342,default,block1,tony,ai,0.51,64714,know,16,know,C,[],25,Yes,,Female,English,Chrome,Windows,768,1366,32.14255,
1342,default,block1,zoe,ai,0.49,86187,acknowledge,17,acknowledge,C,[],25,Yes,,Female,English,Chrome,Windows,768,1366,32.14255,
1342,default,block1,danny,ai,0.47,25741,pretend,18,pretend,C,[],25,Yes,,Female,English,Chrome,Windows,768,1366,32.14255,
1342,default,block1,emma,ai,0.47,7789,think,19,think,C,[],25,Yes,,Female,English,Chrome,Windows,768,1366,32.14255,
1342,default,block1,julian,ai,0.48,71904,reveal,20,reveal,C,[],25,Yes,,Female,English,Chrome,Windows,768,1366,32.14255,
1342,default,block1,garage,ai,0.6,41942,MC,21,MC,MC,[],25,Yes,,Female,English,Chrome,Windows,768,1366,32.14255,
1342,default,block1,charley,ai,0.32,7844,inform,22,inform,C,[],25,Yes,,Female,English,Chrome,Windows,768,1366,32.14255,
1342,default,block1,pizza,ai,0.7,10408,MC,23,MC,MC,[],25,Yes,,Female,English,Chrome,Windows,768,1366,32.14255,
1342,default,block1,jackson,ai,0.37,16385,confess,24,confess,C,[],25,Yes,,Female,English,Chrome,Windows,768,1366,32.14255,
1342,default,block1,frank,ai,0.23,7727,demonstrate,25,demonstrate,C,[],25,Yes,,Female,English,Chrome,Windows,768,1366,32.14255,
1342,default,block1,josie,ai,0.2,8873,establish,26,establish,C,[],25,Yes,,Female,English,Chrome,Windows,768,1366,32.14255,
1342,default,block1,olivia,ai,0.18,5843,discover,27,discover,C,[],25,Yes,,Female,English,Chrome,Windows,768,1366,32.14255,
1342,default,block1,mia,ai,0.17,17987,be_right,28,be_right,C,[],25,Yes,,Female,English,Chrome,Windows,768,1366,32.14255,
1342,default,block1,kids,ai,0.85,51117,MC,29,MC,MC,[],25,Yes,,Female,English,Chrome,Windows,768,1366,32.14255,
1342,default,block1,jayden,ai,0.12,7111,hear,30,hear,C,[],25,Yes,,Female,English,Chrome,Windows,768,1366,32.14255,
1342,default,block2,olivia,projective,0.81,8436,discover,32,discover,C,[],25,Yes,,Female,English,Chrome,Windows,768,1366,32.14255,
1342,default,block2,mia,projective,0.17,26362,be_right,33,be_right,C,[],25,Yes,,Female,English,Chrome,Windows,768,1366,32.14255,
1342,default,block2,zoe,projective,0.75,6306,acknowledge,34,acknowledge,C,[],25,Yes,,Female,English,Chrome,Windows,768,1366,32.14255,
1342,default,block2,kids,projective,0.75,6785,MC,35,MC,MC,[],25,Yes,,Female,English,Chrome,Windows,768,1366,32.14255,
1342,default,block2,danny,projective,0.28,17023,pretend,36,pretend,C,[],25,Yes,,Female,English,Chrome,Windows,768,1366,32.14255,
1342,default,block2,sophia,projective,0.14,39366,prove,37,prove,C,[],25,Yes,,Female,English,Chrome,Windows,768,1366,32.14255,
1342,default,block2,muffins,projective,0.9,22011,MC,38,MC,MC,[],25,Yes,,Female,English,Chrome,Windows,768,1366,32.14255,
1342,default,block2,tony,projective,0.75,5990,know,39,know,C,[],25,Yes,,Female,English,Chrome,Windows,768,1366,32.14255,
1342,default,block2,isabella,projective,0.36,6836,suggest,40,suggest,C,[],25,Yes,,Female,English,Chrome,Windows,768,1366,32.14255,
1342,default,block2,pizza,projective,0.77,3905,MC,41,MC,MC,[],25,Yes,,Female,English,Chrome,Windows,768,1366,32.14255,
1342,default,block2,jackson,projective,0.71,5399,confess,42,confess,C,[],25,Yes,,Female,English,Chrome,Windows,768,1366,32.14255,
1342,default,block2,josh,projective,0.34,101643,say,43,say,C,[],25,Yes,,Female,English,Chrome,Windows,768,1366,32.14255,
1342,default,block2,josie,projective,0.33,127928,establish,44,establish,C,[],25,Yes,,Female,English,Chrome,Windows,768,1366,32.14255,
1342,default,block2,emma,projective,0.25,5111,think,45,think,C,[],25,Yes,,Female,English,Chrome,Windows,768,1366,32.14255,
1342,default,block2,charley,projective,0.59,11669,inform,46,inform,C,[],25,Yes,,Female,English,Chrome,Windows,768,1366,32.14255,
1342,default,block2,hat,projective,0.76,5939,MC,47,MC,MC,[],25,Yes,,Female,English,Chrome,Windows,768,1366,32.14255,
1342,default,block2,frank,projective,0.33,97159,demonstrate,48,demonstrate,C,[],25,Yes,,Female,English,Chrome,Windows,768,1366,32.14255,
1342,default,block2,garage,projective,0.83,166097,MC,49,MC,MC,[],25,Yes,,Female,English,Chrome,Windows,768,1366,32.14255,
1342,default,block2,owen,projective,0.69,11376,announce,50,announce,C,[],25,Yes,,Female,English,Chrome,Windows,768,1366,32.14255,
1342,default,block2,jayden,projective,0.7,8858,hear,51,hear,C,[],25,Yes,,Female,English,Chrome,Windows,768,1366,32.14255,
1342,default,block2,emily,projective,0.23,4017,confirm,52,confirm,C,[],25,Yes,,Female,English,Chrome,Windows,768,1366,32.14255,
1342,default,block2,jon,projective,0.49,4117,admit,53,admit,C,[],25,Yes,,Female,English,Chrome,Windows,768,1366,32.14255,
1342,default,block2,grace,projective,0.73,11512,see,54,see,C,[],25,Yes,,Female,English,Chrome,Windows,768,1366,32.14255,
1342,default,block2,mary,projective,0.74,15553,be_annoyed,55,be_annoyed,C,[],25,Yes,,Female,English,Chrome,Windows,768,1366,32.14255,
1342,default,block2,ballet,projective,0.75,5211,MC,56,MC,MC,[],25,Yes,,Female,English,Chrome,Windows,768,1366,32.14255,
1342,default,block2,julian,projective,0.74,3550,reveal,57,reveal,C,[],25,Yes,,Female,English,Chrome,Windows,768,1366,32.14255,
1166,default,block1,emily,ai,0.03,40472,admit,5,admit,C,[],21,Yes,"No, Thank you",Female,English,Chrome,Windows,864,1536,7.779216666666667,
1166,default,block1,jackson,ai,0,15822,reveal,6,reveal,C,[],21,Yes,"No, Thank you",Female,English,Chrome,Windows,864,1536,7.779216666666667,
1166,default,block1,pizza,ai,0.97,7086,MC,7,MC,MC,[],21,Yes,"No, Thank you",Female,English,Chrome,Windows,864,1536,7.779216666666667,
1166,default,block1,olivia,ai,0.03,7068,acknowledge,8,acknowledge,C,[],21,Yes,"No, Thank you",Female,English,Chrome,Windows,864,1536,7.779216666666667,
1166,default,block1,jayden,ai,0.01,8116,be_annoyed,9,be_annoyed,C,[],21,Yes,"No, Thank you",Female,English,Chrome,Windows,864,1536,7.779216666666667,
1166,default,block1,josie,ai,0.02,10093,confirm,10,confirm,C,[],21,Yes,"No, Thank you",Female,English,Chrome,Windows,864,1536,7.779216666666667,
1166,default,block1,zoe,ai,0.02,17277,think,11,think,C,[],21,Yes,"No, Thank you",Female,English,Chrome,Windows,864,1536,7.779216666666667,
1166,default,block1,ballet,ai,0.99,7621,MC,12,MC,MC,[],21,Yes,"No, Thank you",Female,English,Chrome,Windows,864,1536,7.779216666666667,
1166,default,block1,danny,ai,0.03,7121,demonstrate,13,demonstrate,C,[],21,Yes,"No, Thank you",Female,English,Chrome,Windows,864,1536,7.779216666666667,
1166,default,block1,owen,ai,0.03,7001,suggest,14,suggest,C,[],21,Yes,"No, Thank you",Female,English,Chrome,Windows,864,1536,7.779216666666667,
1166,default,block1,hat,ai,0.96,5270,MC,15,MC,MC,[],21,Yes,"No, Thank you",Female,English,Chrome,Windows,864,1536,7.779216666666667,
1166,default,block1,kids,ai,0.97,6234,MC,16,MC,MC,[],21,Yes,"No, Thank you",Female,English,Chrome,Windows,864,1536,7.779216666666667,
1166,default,block1,jon,ai,0.02,5573,hear,17,hear,C,[],21,Yes,"No, Thank you",Female,English,Chrome,Windows,864,1536,7.779216666666667,
1166,default,block1,julian,ai,0.03,7337,be_right,18,be_right,C,[],21,Yes,"No, Thank you",Female,English,Chrome,Windows,864,1536,7.779216666666667,
1166,default,block1,muffins,ai,0.98,5221,MC,19,MC,MC,[],21,Yes,"No, Thank you",Female,English,Chrome,Windows,864,1536,7.779216666666667,
1166,default,block1,isabella,ai,0.02,6645,inform,20,inform,C,[],21,Yes,"No, Thank you",Female,English,Chrome,Windows,864,1536,7.779216666666667,
1166,default,block1,sophia,ai,0.04,5815,know,21,know,C,[],21,Yes,"No, Thank you",Female,English,Chrome,Windows,864,1536,7.779216666666667,
1166,default,block1,emma,ai,0.01,6972,discover,22,discover,C,[],21,Yes,"No, Thank you",Female,English,Chrome,Windows,864,1536,7.779216666666667,
1166,default,block1,garage,ai,0.98,4857,MC,23,MC,MC,[],21,Yes,"No, Thank you",Female,English,Chrome,Windows,864,1536,7.779216666666667,
1166,default,block1,grace,ai,0.04,5559,confess,24,confess,C,[],21,Yes,"No, Thank you",Female,English,Chrome,Windows,864,1536,7.779216666666667,
1166,default,block1,tony,ai,0,5623,announce,25,announce,C,[],21,Yes,"No, Thank you",Female,English,Chrome,Windows,864,1536,7.779216666666667,
1166,default,block1,mia,ai,0.01,9769,say,26,say,C,[],21,Yes,"No, Thank you",Female,English,Chrome,Windows,864,1536,7.779216666666667,
1166,default,block1,charley,ai,0.01,5256,prove,27,prove,C,[],21,Yes,"No, Thank you",Female,English,Chrome,Windows,864,1536,7.779216666666667,
1166,default,block1,josh,ai,0.03,6592,see,28,see,C,[],21,Yes,"No, Thank you",Female,English,Chrome,Windows,864,1536,7.779216666666667,
1166,default,block1,mary,ai,0.01,5912,pretend,29,pretend,C,[],21,Yes,"No, Thank you",Female,English,Chrome,Windows,864,1536,7.779216666666667,
1166,default,block1,frank,ai,0.01,7150,establish,30,establish,C,[],21,Yes,"No, Thank you",Female,English,Chrome,Windows,864,1536,7.779216666666667,
1166,default,block2,zoe,projective,0.01,7657,think,32,think,C,[],21,Yes,"No, Thank you",Female,English,Chrome,Windows,864,1536,7.779216666666667,
1166,default,block2,emma,projective,0.98,13644,discover,33,discover,C,[],21,Yes,"No, Thank you",Female,English,Chrome,Windows,864,1536,7.779216666666667,
1166,default,block2,kids,projective,0.99,4915,MC,34,MC,MC,[],21,Yes,"No, Thank you",Female,English,Chrome,Windows,864,1536,7.779216666666667,
1166,default,block2,charley,projective,0.02,7099,prove,35,prove,C,[],21,Yes,"No, Thank you",Female,English,Chrome,Windows,864,1536,7.779216666666667,
1166,default,block2,ballet,projective,0.99,4287,MC,36,MC,MC,[],21,Yes,"No, Thank you",Female,English,Chrome,Windows,864,1536,7.779216666666667,
1166,default,block2,owen,projective,0.03,6125,suggest,37,suggest,C,[],21,Yes,"No, Thank you",Female,English,Chrome,Windows,864,1536,7.779216666666667,
1166,default,block2,emily,projective,0.99,4335,admit,38,admit,C,[],21,Yes,"No, Thank you",Female,English,Chrome,Windows,864,1536,7.779216666666667,
1166,default,block2,muffins,projective,0.97,2789,MC,39,MC,MC,[],21,Yes,"No, Thank you",Female,English,Chrome,Windows,864,1536,7.779216666666667,
1166,default,block2,josh,projective,0.96,4543,see,40,see,C,[],21,Yes,"No, Thank you",Female,English,Chrome,Windows,864,1536,7.779216666666667,
1166,default,block2,pizza,projective,0.98,3280,MC,41,MC,MC,[],21,Yes,"No, Thank you",Female,English,Chrome,Windows,864,1536,7.779216666666667,
1166,default,block2,frank,projective,0.97,5594,establish,42,establish,C,[],21,Yes,"No, Thank you",Female,English,Chrome,Windows,864,1536,7.779216666666667,
1166,default,block2,sophia,projective,0.96,5326,know,43,know,C,[],21,Yes,"No, Thank you",Female,English,Chrome,Windows,864,1536,7.779216666666667,
1166,default,block2,olivia,projective,0.99,5613,acknowledge,44,acknowledge,C,[],21,Yes,"No, Thank you",Female,English,Chrome,Windows,864,1536,7.779216666666667,
1166,default,block2,hat,projective,1,2772,MC,45,MC,MC,[],21,Yes,"No, Thank you",Female,English,Chrome,Windows,864,1536,7.779216666666667,
1166,default,block2,isabella,projective,0.95,5882,inform,46,inform,C,[],21,Yes,"No, Thank you",Female,English,Chrome,Windows,864,1536,7.779216666666667,
1166,default,block2,josie,projective,0.99,3438,confirm,47,confirm,C,[],21,Yes,"No, Thank you",Female,English,Chrome,Windows,864,1536,7.779216666666667,
1166,default,block2,grace,projective,0.96,2878,confess,48,confess,C,[],21,Yes,"No, Thank you",Female,English,Chrome,Windows,864,1536,7.779216666666667,
1166,default,block2,tony,projective,0.95,5290,announce,49,announce,C,[],21,Yes,"No, Thank you",Female,English,Chrome,Windows,864,1536,7.779216666666667,
1166,default,block2,julian,projective,0.04,4907,be_right,50,be_right,C,[],21,Yes,"No, Thank you",Female,English,Chrome,Windows,864,1536,7.779216666666667,
1166,default,block2,jon,projective,0.99,9082,hear,51,hear,C,[],21,Yes,"No, Thank you",Female,English,Chrome,Windows,864,1536,7.779216666666667,
1166,default,block2,garage,projective,0.95,3624,MC,52,MC,MC,[],21,Yes,"No, Thank you",Female,English,Chrome,Windows,864,1536,7.779216666666667,
1166,default,block2,danny,projective,0.04,8195,demonstrate,53,demonstrate,C,[],21,Yes,"No, Thank you",Female,English,Chrome,Windows,864,1536,7.779216666666667,
1166,default,block2,jayden,projective,0.01,7451,be_annoyed,54,be_annoyed,C,[],21,Yes,"No, Thank you",Female,English,Chrome,Windows,864,1536,7.779216666666667,
1166,default,block2,mia,projective,0.03,3760,say,55,say,C,[],21,Yes,"No, Thank you",Female,English,Chrome,Windows,864,1536,7.779216666666667,
1166,default,block2,mary,projective,0.06,5052,pretend,56,pretend,C,[],21,Yes,"No, Thank you",Female,English,Chrome,Windows,864,1536,7.779216666666667,
1166,default,block2,jackson,projective,0.98,4508,reveal,57,reveal,C,[],21,Yes,"No, Thank you",Female,English,Chrome,Windows,864,1536,7.779216666666667,
1452,default,block1,josh,ai,0.69,13765,say,5,say,C,[],42,Yes,,Male,English,Firefox,Windows,864,1536,11.387683333333332,
1452,default,block1,charley,ai,0.44,1410,announce,6,announce,C,[],42,Yes,,Male,English,Firefox,Windows,864,1536,11.387683333333332,
1452,default,block1,tony,ai,0.74,775,confirm,7,confirm,C,[],42,Yes,,Male,English,Firefox,Windows,864,1536,11.387683333333332,
1452,default,block1,josie,ai,0.66,49447,know,8,know,C,[],42,Yes,,Male,English,Firefox,Windows,864,1536,11.387683333333332,
1452,default,block1,frank,ai,0.75,697,be_annoyed,9,be_annoyed,C,[],42,Yes,,Male,English,Firefox,Windows,864,1536,11.387683333333332,
1452,default,block1,julian,ai,0.25,751,demonstrate,10,demonstrate,C,[],42,Yes,,Male,English,Firefox,Windows,864,1536,11.387683333333332,
1452,default,block1,emily,ai,0.84,614,establish,11,establish,C,[],42,Yes,,Male,English,Firefox,Windows,864,1536,11.387683333333332,
1452,default,block1,garage,ai,0.69,1182,MC,12,MC,MC,[],42,Yes,,Male,English,Firefox,Windows,864,1536,11.387683333333332,
1452,default,block1,danny,ai,0.7,2545,be_right,13,be_right,C,[],42,Yes,,Male,English,Firefox,Windows,864,1536,11.387683333333332,
1452,default,block1,kids,ai,0.27,968,MC,14,MC,MC,[],42,Yes,,Male,English,Firefox,Windows,864,1536,11.387683333333332,
1452,default,block1,jon,ai,0.67,3217,pretend,15,pretend,C,[],42,Yes,,Male,English,Firefox,Windows,864,1536,11.387683333333332,
1452,default,block1,jackson,ai,0.69,37414,reveal,16,reveal,C,[],42,Yes,,Male,English,Firefox,Windows,864,1536,11.387683333333332,
1452,default,block1,zoe,ai,0.64,1714,prove,17,prove,C,[],42,Yes,,Male,English,Firefox,Windows,864,1536,11.387683333333332,
1452,default,block1,jayden,ai,0.28,1630,see,18,see,C,[],42,Yes,,Male,English,Firefox,Windows,864,1536,11.387683333333332,
1452,default,block1,sophia,ai,0.8,802,confess,19,confess,C,[],42,Yes,,Male,English,Firefox,Windows,864,1536,11.387683333333332,
1452,default,block1,ballet,ai,0.31,759,MC,20,MC,MC,[],42,Yes,,Male,English,Firefox,Windows,864,1536,11.387683333333332,
1452,default,block1,hat,ai,0.63,743,MC,21,MC,MC,[],42,Yes,,Male,English,Firefox,Windows,864,1536,11.387683333333332,
1452,default,block1,isabella,ai,0.62,1217,suggest,22,suggest,C,[],42,Yes,,Male,English,Firefox,Windows,864,1536,11.387683333333332,
1452,default,block1,owen,ai,0.15,854,discover,23,discover,C,[],42,Yes,,Male,English,Firefox,Windows,864,1536,11.387683333333332,
1452,default,block1,olivia,ai,0.71,745,admit,24,admit,C,[],42,Yes,,Male,English,Firefox,Windows,864,1536,11.387683333333332,
1452,default,block1,grace,ai,0.68,720,think,25,think,C,[],42,Yes,,Male,English,Firefox,Windows,864,1536,11.387683333333332,
1452,default,block1,muffins,ai,0.34,720,MC,26,MC,MC,[],42,Yes,,Male,English,Firefox,Windows,864,1536,11.387683333333332,
1452,default,block1,emma,ai,0.64,800,inform,27,inform,C,[],42,Yes,,Male,English,Firefox,Windows,864,1536,11.387683333333332,
1452,default,block1,pizza,ai,0.69,726,MC,28,MC,MC,[],42,Yes,,Male,English,Firefox,Windows,864,1536,11.387683333333332,
1452,default,block1,mia,ai,0.24,1320,acknowledge,29,acknowledge,C,[],42,Yes,,Male,English,Firefox,Windows,864,1536,11.387683333333332,
1452,default,block1,mary,ai,0.7,784,hear,30,hear,C,[],42,Yes,,Male,English,Firefox,Windows,864,1536,11.387683333333332,
1452,default,block2,grace,projective,0.67,1065,think,32,think,C,[],42,Yes,,Male,English,Firefox,Windows,864,1536,11.387683333333332,
1452,default,block2,isabella,projective,0.74,1127,suggest,33,suggest,C,[],42,Yes,,Male,English,Firefox,Windows,864,1536,11.387683333333332,
1452,default,block2,tony,projective,0.71,2678,confirm,34,confirm,C,[],42,Yes,,Male,English,Firefox,Windows,864,1536,11.387683333333332,
1452,default,block2,emma,projective,0.76,2681,inform,35,inform,C,[],42,Yes,,Male,English,Firefox,Windows,864,1536,11.387683333333332,
1452,default,block2,emily,projective,0.16,9888,establish,36,establish,C,[],42,Yes,,Male,English,Firefox,Windows,864,1536,11.387683333333332,
1452,default,block2,kids,projective,0.69,1256,MC,37,MC,MC,[],42,Yes,,Male,English,Firefox,Windows,864,1536,11.387683333333332,
1452,default,block2,ballet,projective,0.6,968,MC,38,MC,MC,[],42,Yes,,Male,English,Firefox,Windows,864,1536,11.387683333333332,
1452,default,block2,charley,projective,0.63,1134,announce,39,announce,C,[],42,Yes,,Male,English,Firefox,Windows,864,1536,11.387683333333332,
1452,default,block2,hat,projective,0.75,1649,MC,40,MC,MC,[],42,Yes,,Male,English,Firefox,Windows,864,1536,11.387683333333332,
1452,default,block2,sophia,projective,0.77,2209,confess,41,confess,C,[],42,Yes,,Male,English,Firefox,Windows,864,1536,11.387683333333332,
1452,default,block2,garage,projective,0.69,1327,MC,42,MC,MC,[],42,Yes,,Male,English,Firefox,Windows,864,1536,11.387683333333332,
1452,default,block2,jackson,projective,0.28,1857,reveal,43,reveal,C,[],42,Yes,,Male,English,Firefox,Windows,864,1536,11.387683333333332,
1452,default,block2,mia,projective,0.73,1351,acknowledge,44,acknowledge,C,[],42,Yes,,Male,English,Firefox,Windows,864,1536,11.387683333333332,
1452,default,block2,jon,projective,0.6,27616,pretend,45,pretend,C,[],42,Yes,,Male,English,Firefox,Windows,864,1536,11.387683333333332,
1452,default,block2,olivia,projective,0.73,904,admit,46,admit,C,[],42,Yes,,Male,English,Firefox,Windows,864,1536,11.387683333333332,
1452,default,block2,danny,projective,0.31,1072,be_right,47,be_right,C,[],42,Yes,,Male,English,Firefox,Windows,864,1536,11.387683333333332,
1452,default,block2,mary,projective,0.7,824,hear,48,hear,C,[],42,Yes,,Male,English,Firefox,Windows,864,1536,11.387683333333332,
1452,default,block2,josh,projective,0.75,681,say,49,say,C,[],42,Yes,,Male,English,Firefox,Windows,864,1536,11.387683333333332,
1452,default,block2,owen,projective,0.31,1518,discover,50,discover,C,[],42,Yes,,Male,English,Firefox,Windows,864,1536,11.387683333333332,
1452,default,block2,josie,projective,0.67,705,know,51,know,C,[],42,Yes,,Male,English,Firefox,Windows,864,1536,11.387683333333332,
1452,default,block2,muffins,projective,0.32,782,MC,52,MC,MC,[],42,Yes,,Male,English,Firefox,Windows,864,1536,11.387683333333332,
1452,default,block2,julian,projective,0.69,1120,demonstrate,53,demonstrate,C,[],42,Yes,,Male,English,Firefox,Windows,864,1536,11.387683333333332,
1452,default,block2,pizza,projective,0.72,712,MC,54,MC,MC,[],42,Yes,,Male,English,Firefox,Windows,864,1536,11.387683333333332,
1452,default,block2,frank,projective,0.73,1792,be_annoyed,55,be_annoyed,C,[],42,Yes,,Male,English,Firefox,Windows,864,1536,11.387683333333332,
1452,default,block2,zoe,projective,0.75,824,prove,56,prove,C,[],42,Yes,,Male,English,Firefox,Windows,864,1536,11.387683333333332,
1452,default,block2,jayden,projective,0.79,1159,see,57,see,C,[],42,Yes,,Male,English,Firefox,Windows,864,1536,11.387683333333332,
1371,default,block1,danny,projective,0.01,8739,pretend,5,pretend,C,[],19,Yes,,Female,English,Chrome,Mac,900,1440,7.322216666666667,
1371,default,block1,grace,projective,0.01,11875,demonstrate,6,demonstrate,C,[],19,Yes,,Female,English,Chrome,Mac,900,1440,7.322216666666667,
1371,default,block1,jackson,projective,0.02,11328,establish,7,establish,C,[],19,Yes,,Female,English,Chrome,Mac,900,1440,7.322216666666667,
1371,default,block1,emily,projective,0.28,11528,prove,8,prove,C,[],19,Yes,,Female,English,Chrome,Mac,900,1440,7.322216666666667,
1371,default,block1,hat,projective,0.97,5043,MC,9,MC,MC,[],19,Yes,,Female,English,Chrome,Mac,900,1440,7.322216666666667,
1371,default,block1,sophia,projective,0.79,10410,hear,10,hear,C,[],19,Yes,,Female,English,Chrome,Mac,900,1440,7.322216666666667,
1371,default,block1,tony,projective,0.88,7663,be_annoyed,11,be_annoyed,C,[],19,Yes,,Female,English,Chrome,Mac,900,1440,7.322216666666667,
1371,default,block1,jayden,projective,0.67,14449,suggest,12,suggest,C,[],19,Yes,,Female,English,Chrome,Mac,900,1440,7.322216666666667,
1371,default,block1,josie,projective,0.96,9147,admit,13,admit,C,[],19,Yes,,Female,English,Chrome,Mac,900,1440,7.322216666666667,
1371,default,block1,muffins,projective,0.98,5070,MC,14,MC,MC,[],19,Yes,,Female,English,Chrome,Mac,900,1440,7.322216666666667,
1371,default,block1,mary,projective,0.99,5406,confess,15,confess,C,[],19,Yes,,Female,English,Chrome,Mac,900,1440,7.322216666666667,
1371,default,block1,charley,projective,0.17,11376,think,16,think,C,[],19,Yes,,Female,English,Chrome,Mac,900,1440,7.322216666666667,
1371,default,block1,isabella,projective,0.22,7166,announce,17,announce,C,[],19,Yes,,Female,English,Chrome,Mac,900,1440,7.322216666666667,
1371,default,block1,josh,projective,0.18,11460,confirm,18,confirm,C,[],19,Yes,,Female,English,Chrome,Mac,900,1440,7.322216666666667,
1371,default,block1,frank,projective,0.13,11762,say,19,say,C,[],19,Yes,,Female,English,Chrome,Mac,900,1440,7.322216666666667,
1371,default,block1,ballet,projective,0.98,4309,MC,20,MC,MC,[],19,Yes,,Female,English,Chrome,Mac,900,1440,7.322216666666667,
1371,default,block1,kids,projective,0.97,4295,MC,21,MC,MC,[],19,Yes,,Female,English,Chrome,Mac,900,1440,7.322216666666667,
1371,default,block1,jon,projective,0.97,8291,know,22,know,C,[],19,Yes,,Female,English,Chrome,Mac,900,1440,7.322216666666667,
1371,default,block1,zoe,projective,0.8,9349,inform,23,inform,C,[],19,Yes,,Female,English,Chrome,Mac,900,1440,7.322216666666667,
1371,default,block1,garage,projective,0.97,4794,MC,24,MC,MC,[],19,Yes,,Female,English,Chrome,Mac,900,1440,7.322216666666667,
1371,default,block1,owen,projective,0.79,9731,discover,25,discover,C,[],19,Yes,,Female,English,Chrome,Mac,900,1440,7.322216666666667,
1371,default,block1,pizza,projective,0.98,4609,MC,26,MC,MC,[],19,Yes,,Female,English,Chrome,Mac,900,1440,7.322216666666667,
1371,default,block1,julian,projective,0.02,9385,be_right,27,be_right,C,[],19,Yes,,Female,English,Chrome,Mac,900,1440,7.322216666666667,
1371,default,block1,mia,projective,0.95,10962,see,28,see,C,[],19,Yes,,Female,English,Chrome,Mac,900,1440,7.322216666666667,
1371,default,block1,olivia,projective,0.91,7493,reveal,29,reveal,C,[],19,Yes,,Female,English,Chrome,Mac,900,1440,7.322216666666667,
1371,default,block1,emma,projective,0.79,8422,acknowledge,30,acknowledge,C,[],19,Yes,,Female,English,Chrome,Mac,900,1440,7.322216666666667,
1371,default,block2,jon,ai,0.03,11786,know,32,know,C,[],19,Yes,,Female,English,Chrome,Mac,900,1440,7.322216666666667,
1371,default,block2,jackson,ai,0.02,6811,establish,33,establish,C,[],19,Yes,,Female,English,Chrome,Mac,900,1440,7.322216666666667,
1371,default,block2,muffins,ai,0.97,5011,MC,34,MC,MC,[],19,Yes,,Female,English,Chrome,Mac,900,1440,7.322216666666667,
1371,default,block2,isabella,ai,0.04,7859,announce,35,announce,C,[],19,Yes,,Female,English,Chrome,Mac,900,1440,7.322216666666667,
1371,default,block2,emily,ai,0.03,7687,prove,36,prove,C,[],19,Yes,,Female,English,Chrome,Mac,900,1440,7.322216666666667,
1371,default,block2,olivia,ai,0.05,6427,reveal,37,reveal,C,[],19,Yes,,Female,English,Chrome,Mac,900,1440,7.322216666666667,
1371,default,block2,josh,ai,0.03,5857,confirm,38,confirm,C,[],19,Yes,,Female,English,Chrome,Mac,900,1440,7.322216666666667,
1371,default,block2,kids,ai,0.97,4001,MC,39,MC,MC,[],19,Yes,,Female,English,Chrome,Mac,900,1440,7.322216666666667,
1371,default,block2,hat,ai,0.97,5124,MC,40,MC,MC,[],19,Yes,,Female,English,Chrome,Mac,900,1440,7.322216666666667,
1371,default,block2,sophia,ai,0.03,5903,hear,41,hear,C,[],19,Yes,,Female,English,Chrome,Mac,900,1440,7.322216666666667,
1371,default,block2,owen,ai,0.03,5353,discover,42,discover,C,[],19,Yes,,Female,English,Chrome,Mac,900,1440,7.322216666666667,
1371,default,block2,danny,ai,0.04,9010,pretend,43,pretend,C,[],19,Yes,,Female,English,Chrome,Mac,900,1440,7.322216666666667,
1371,default,block2,ballet,ai,0.96,4258,MC,44,MC,MC,[],19,Yes,,Female,English,Chrome,Mac,900,1440,7.322216666666667,
1371,default,block2,julian,ai,0.05,4487,be_right,45,be_right,C,[],19,Yes,,Female,English,Chrome,Mac,900,1440,7.322216666666667,
1371,default,block2,frank,ai,0.03,4997,say,46,say,C,[],19,Yes,,Female,English,Chrome,Mac,900,1440,7.322216666666667,
1371,default,block2,garage,ai,0.96,5569,MC,47,MC,MC,[],19,Yes,,Female,English,Chrome,Mac,900,1440,7.322216666666667,
1371,default,block2,jayden,ai,0.04,5537,suggest,48,suggest,C,[],19,Yes,,Female,English,Chrome,Mac,900,1440,7.322216666666667,
1371,default,block2,emma,ai,0.04,6759,acknowledge,49,acknowledge,C,[],19,Yes,,Female,English,Chrome,Mac,900,1440,7.322216666666667,
1371,default,block2,mary,ai,0.04,3996,confess,50,confess,C,[],19,Yes,,Female,English,Chrome,Mac,900,1440,7.322216666666667,
1371,default,block2,mia,ai,0.06,4982,see,51,see,C,[],19,Yes,,Female,English,Chrome,Mac,900,1440,7.322216666666667,
1371,default,block2,tony,ai,0.04,9374,be_annoyed,52,be_annoyed,C,[],19,Yes,,Female,English,Chrome,Mac,900,1440,7.322216666666667,
1371,default,block2,pizza,ai,0.95,3762,MC,53,MC,MC,[],19,Yes,,Female,English,Chrome,Mac,900,1440,7.322216666666667,
1371,default,block2,zoe,ai,0.03,4102,inform,54,inform,C,[],19,Yes,,Female,English,Chrome,Mac,900,1440,7.322216666666667,
1371,default,block2,charley,ai,0.02,3898,think,55,think,C,[],19,Yes,,Female,English,Chrome,Mac,900,1440,7.322216666666667,
1371,default,block2,grace,ai,0.05,6607,demonstrate,56,demonstrate,C,[],19,Yes,,Female,English,Chrome,Mac,900,1440,7.322216666666667,
1371,default,block2,josie,ai,0.03,8379,admit,57,admit,C,[],19,Yes,,Female,English,Chrome,Mac,900,1440,7.322216666666667,
1289,default,block1,owen,ai,0.99,47729,acknowledge,5,acknowledge,C,[],45,Yes,,Male,English,Firefox,Windows,768,1366,7.279616666666667,
1289,default,block1,isabella,ai,0.99,19169,discover,6,discover,C,[],45,Yes,,Male,English,Firefox,Windows,768,1366,7.279616666666667,
1289,default,block1,jayden,ai,0.01,25497,see,7,see,C,[],45,Yes,,Male,English,Firefox,Windows,768,1366,7.279616666666667,
1289,default,block1,jackson,ai,0.96,18303,reveal,8,reveal,C,[],45,Yes,,Male,English,Firefox,Windows,768,1366,7.279616666666667,
1289,default,block1,josh,ai,0.97,11778,be_right,9,be_right,C,[],45,Yes,,Male,English,Firefox,Windows,768,1366,7.279616666666667,
1289,default,block1,emily,ai,0.97,7183,know,10,know,C,[],45,Yes,,Male,English,Firefox,Windows,768,1366,7.279616666666667,
1289,default,block1,mary,ai,0.03,13912,think,11,think,C,[],45,Yes,,Male,English,Firefox,Windows,768,1366,7.279616666666667,
1289,default,block1,josie,ai,0.68,10707,announce,12,announce,C,[],45,Yes,,Male,English,Firefox,Windows,768,1366,7.279616666666667,
1289,default,block1,emma,ai,0.89,2274,hear,13,hear,C,[],45,Yes,,Male,English,Firefox,Windows,768,1366,7.279616666666667,
1289,default,block1,julian,ai,0.07,6855,admit,14,admit,C,[],45,Yes,,Male,English,Firefox,Windows,768,1366,7.279616666666667,
1289,default,block1,grace,ai,0.95,5114,confirm,15,confirm,C,[],45,Yes,,Male,English,Firefox,Windows,768,1366,7.279616666666667,
1289,default,block1,hat,ai,0.03,9503,MC,16,MC,MC,[],45,Yes,,Male,English,Firefox,Windows,768,1366,7.279616666666667,
1289,default,block1,jon,ai,0.97,2275,establish,17,establish,C,[],45,Yes,,Male,English,Firefox,Windows,768,1366,7.279616666666667,
1289,default,block1,muffins,ai,0.01,1791,MC,18,MC,MC,[],45,Yes,,Male,English,Firefox,Windows,768,1366,7.279616666666667,
1289,default,block1,kids,ai,0.96,1825,MC,19,MC,MC,[],45,Yes,,Male,English,Firefox,Windows,768,1366,7.279616666666667,
1289,default,block1,zoe,ai,0.96,3992,demonstrate,20,demonstrate,C,[],45,Yes,,Male,English,Firefox,Windows,768,1366,7.279616666666667,
1289,default,block1,mia,ai,0.02,10333,suggest,21,suggest,C,[],45,Yes,,Male,English,Firefox,Windows,768,1366,7.279616666666667,
1289,default,block1,frank,ai,0.96,1949,confess,22,confess,C,[],45,Yes,,Male,English,Firefox,Windows,768,1366,7.279616666666667,
1289,default,block1,sophia,ai,0.77,10901,say,23,say,C,[],45,Yes,,Male,English,Firefox,Windows,768,1366,7.279616666666667,
1289,default,block1,tony,ai,0.13,1996,pretend,24,pretend,C,[],45,Yes,,Male,English,Firefox,Windows,768,1366,7.279616666666667,
1289,default,block1,garage,ai,0.95,1824,MC,25,MC,MC,[],45,Yes,,Male,English,Firefox,Windows,768,1366,7.279616666666667,
1289,default,block1,ballet,ai,0.94,2288,MC,26,MC,MC,[],45,Yes,,Male,English,Firefox,Windows,768,1366,7.279616666666667,
1289,default,block1,olivia,ai,0.08,4958,prove,27,prove,C,[],45,Yes,,Male,English,Firefox,Windows,768,1366,7.279616666666667,
1289,default,block1,charley,ai,0.94,2421,inform,28,inform,C,[],45,Yes,,Male,English,Firefox,Windows,768,1366,7.279616666666667,
1289,default,block1,danny,ai,0.08,2210,be_annoyed,29,be_annoyed,C,[],45,Yes,,Male,English,Firefox,Windows,768,1366,7.279616666666667,
1289,default,block1,pizza,ai,0.92,2084,MC,30,MC,MC,[],45,Yes,,Male,English,Firefox,Windows,768,1366,7.279616666666667,
1289,default,block2,ballet,projective,0.82,15951,MC,32,MC,MC,[],45,Yes,,Male,English,Firefox,Windows,768,1366,7.279616666666667,
1289,default,block2,jackson,projective,0.89,14016,reveal,33,reveal,C,[],45,Yes,,Male,English,Firefox,Windows,768,1366,7.279616666666667,
1289,default,block2,josie,projective,0.1,2085,announce,34,announce,C,[],45,Yes,,Male,English,Firefox,Windows,768,1366,7.279616666666667,
1289,default,block2,isabella,projective,0.85,1491,discover,35,discover,C,[],45,Yes,,Male,English,Firefox,Windows,768,1366,7.279616666666667,
1289,default,block2,emily,projective,0.77,1964,know,36,know,C,[],45,Yes,,Male,English,Firefox,Windows,768,1366,7.279616666666667,
1289,default,block2,hat,projective,0.09,6370,MC,37,MC,MC,[],45,Yes,,Male,English,Firefox,Windows,768,1366,7.279616666666667,
1289,default,block2,muffins,projective,0.1,3134,MC,38,MC,MC,[],45,Yes,,Male,English,Firefox,Windows,768,1366,7.279616666666667,
1289,default,block2,mary,projective,0.07,6573,think,39,think,C,[],45,Yes,,Male,English,Firefox,Windows,768,1366,7.279616666666667,
1289,default,block2,emma,projective,0.09,2084,hear,40,hear,C,[],45,Yes,,Male,English,Firefox,Windows,768,1366,7.279616666666667,
1289,default,block2,zoe,projective,0.87,1498,demonstrate,41,demonstrate,C,[],45,Yes,,Male,English,Firefox,Windows,768,1366,7.279616666666667,
1289,default,block2,josh,projective,0.09,2123,be_right,42,be_right,C,[],45,Yes,,Male,English,Firefox,Windows,768,1366,7.279616666666667,
1289,default,block2,owen,projective,0.99,1814,acknowledge,43,acknowledge,C,[],45,Yes,,Male,English,Firefox,Windows,768,1366,7.279616666666667,
1289,default,block2,garage,projective,0.07,1793,MC,44,MC,MC,[],45,Yes,,Male,English,Firefox,Windows,768,1366,7.279616666666667,
1289,default,block2,olivia,projective,0.05,38503,prove,45,prove,C,[],45,Yes,,Male,English,Firefox,Windows,768,1366,7.279616666666667,
1289,default,block2,danny,projective,0.07,8327,be_annoyed,46,be_annoyed,C,[],45,Yes,,Male,English,Firefox,Windows,768,1366,7.279616666666667,
1289,default,block2,jayden,projective,0.02,21455,see,47,see,C,[],45,Yes,,Male,English,Firefox,Windows,768,1366,7.279616666666667,
1289,default,block2,charley,projective,0.03,1831,inform,48,inform,C,[],45,Yes,,Male,English,Firefox,Windows,768,1366,7.279616666666667,
1289,default,block2,sophia,projective,0.96,2243,say,49,say,C,[],45,Yes,,Male,English,Firefox,Windows,768,1366,7.279616666666667,
1289,default,block2,jon,projective,0.04,2312,establish,50,establish,C,[],45,Yes,,Male,English,Firefox,Windows,768,1366,7.279616666666667,
1289,default,block2,frank,projective,0.04,3504,confess,51,confess,C,[],45,Yes,,Male,English,Firefox,Windows,768,1366,7.279616666666667,
1289,default,block2,kids,projective,0.03,1414,MC,52,MC,MC,[],45,Yes,,Male,English,Firefox,Windows,768,1366,7.279616666666667,
1289,default,block2,tony,projective,0.96,1309,pretend,53,pretend,C,[],45,Yes,,Male,English,Firefox,Windows,768,1366,7.279616666666667,
1289,default,block2,pizza,projective,0.05,1325,MC,54,MC,MC,[],45,Yes,,Male,English,Firefox,Windows,768,1366,7.279616666666667,
1289,default,block2,julian,projective,0.95,1807,admit,55,admit,C,[],45,Yes,,Male,English,Firefox,Windows,768,1366,7.279616666666667,
1289,default,block2,grace,projective,0.04,1507,confirm,56,confirm,C,[],45,Yes,,Male,English,Firefox,Windows,768,1366,7.279616666666667,
1289,default,block2,mia,projective,0.06,1303,suggest,57,suggest,C,[],45,Yes,,Male,English,Firefox,Windows,768,1366,7.279616666666667,
1442,default,block1,josie,projective,0.97,24841,demonstrate,5,demonstrate,C,[],25,Yes,,Female,English,Chrome,Mac,900,1440,13.127133333333331,
1442,default,block1,danny,projective,0.98,7683,be_annoyed,6,be_annoyed,C,[],25,Yes,,Female,English,Chrome,Mac,900,1440,13.127133333333331,
1442,default,block1,emily,projective,0.96,7904,confess,7,confess,C,[],25,Yes,,Female,English,Chrome,Mac,900,1440,13.127133333333331,
1442,default,block1,zoe,projective,0.97,10372,prove,8,prove,C,[],25,Yes,,Female,English,Chrome,Mac,900,1440,13.127133333333331,
1442,default,block1,tony,projective,0.98,7632,inform,9,inform,C,[],25,Yes,,Female,English,Chrome,Mac,900,1440,13.127133333333331,
1442,default,block1,emma,projective,0.96,5882,reveal,10,reveal,C,[],25,Yes,,Female,English,Chrome,Mac,900,1440,13.127133333333331,
1442,default,block1,jackson,projective,0.03,7497,say,11,say,C,[],25,Yes,,Female,English,Chrome,Mac,900,1440,13.127133333333331,
1442,default,block1,olivia,projective,0.98,5731,discover,12,discover,C,[],25,Yes,,Female,English,Chrome,Mac,900,1440,13.127133333333331,
1442,default,block1,frank,projective,0.96,4428,announce,13,announce,C,[],25,Yes,,Female,English,Chrome,Mac,900,1440,13.127133333333331,
1442,default,block1,garage,projective,0.96,12121,MC,14,MC,MC,[],25,Yes,,Female,English,Chrome,Mac,900,1440,13.127133333333331,
1442,default,block1,hat,projective,0.96,5731,MC,15,MC,MC,[],25,Yes,,Female,English,Chrome,Mac,900,1440,13.127133333333331,
1442,default,block1,mary,projective,0.96,6685,hear,16,hear,C,[],25,Yes,,Female,English,Chrome,Mac,900,1440,13.127133333333331,
1442,default,block1,ballet,projective,0.96,6087,MC,17,MC,MC,[],25,Yes,,Female,English,Chrome,Mac,900,1440,13.127133333333331,
1442,default,block1,julian,projective,0.1,13465,confirm,18,confirm,C,[],25,Yes,,Female,English,Chrome,Mac,900,1440,13.127133333333331,
1442,default,block1,muffins,projective,0.99,121890,MC,19,MC,MC,[],25,Yes,,Female,English,Chrome,Mac,900,1440,13.127133333333331,
1442,default,block1,charley,projective,0.73,5379,know,20,know,C,[],25,Yes,,Female,English,Chrome,Mac,900,1440,13.127133333333331,
1442,default,block1,grace,projective,0.46,6060,establish,21,establish,C,[],25,Yes,,Female,English,Chrome,Mac,900,1440,13.127133333333331,
1442,default,block1,jon,projective,0.16,5515,suggest,22,suggest,C,[],25,Yes,,Female,English,Chrome,Mac,900,1440,13.127133333333331,
1442,default,block1,jayden,projective,0.87,5688,admit,23,admit,C,[],25,Yes,,Female,English,Chrome,Mac,900,1440,13.127133333333331,
1442,default,block1,isabella,projective,0.72,23998,acknowledge,24,acknowledge,C,[],25,Yes,,Female,English,Chrome,Mac,900,1440,13.127133333333331,
1442,default,block1,pizza,projective,0.98,5484,MC,25,MC,MC,[],25,Yes,,Female,English,Chrome,Mac,900,1440,13.127133333333331,
1442,default,block1,josh,projective,0.07,13117,pretend,26,pretend,C,[],25,Yes,,Female,English,Chrome,Mac,900,1440,13.127133333333331,
1442,default,block1,kids,projective,0.95,5721,MC,27,MC,MC,[],25,Yes,,Female,English,Chrome,Mac,900,1440,13.127133333333331,
1442,default,block1,owen,projective,0.71,7613,be_right,28,be_right,C,[],25,Yes,,Female,English,Chrome,Mac,900,1440,13.127133333333331,
1442,default,block1,sophia,projective,0.86,4767,see,29,see,C,[],25,Yes,,Female,English,Chrome,Mac,900,1440,13.127133333333331,
1442,default,block1,mia,projective,0.29,9401,think,30,think,C,[],25,Yes,,Female,English,Chrome,Mac,900,1440,13.127133333333331,
1442,default,block2,zoe,ai,0.27,27488,prove,32,prove,C,[],25,Yes,,Female,English,Chrome,Mac,900,1440,13.127133333333331,
1442,default,block2,josh,ai,0.22,86792,pretend,33,pretend,C,[],25,Yes,,Female,English,Chrome,Mac,900,1440,13.127133333333331,
1442,default,block2,julian,ai,0.21,22983,confirm,34,confirm,C,[],25,Yes,,Female,English,Chrome,Mac,900,1440,13.127133333333331,
1442,default,block2,jackson,ai,0.34,11518,say,35,say,C,[],25,Yes,,Female,English,Chrome,Mac,900,1440,13.127133333333331,
1442,default,block2,sophia,ai,0.51,4337,see,36,see,C,[],25,Yes,,Female,English,Chrome,Mac,900,1440,13.127133333333331,
1442,default,block2,emily,ai,0.23,5815,confess,37,confess,C,[],25,Yes,,Female,English,Chrome,Mac,900,1440,13.127133333333331,
1442,default,block2,muffins,ai,0.95,4616,MC,38,MC,MC,[],25,Yes,,Female,English,Chrome,Mac,900,1440,13.127133333333331,
1442,default,block2,isabella,ai,0.21,8883,acknowledge,39,acknowledge,C,[],25,Yes,,Female,English,Chrome,Mac,900,1440,13.127133333333331,
1442,default,block2,charley,ai,0.2,6008,know,40,know,C,[],25,Yes,,Female,English,Chrome,Mac,900,1440,13.127133333333331,
1442,default,block2,grace,ai,0.22,4176,establish,41,establish,C,[],25,Yes,,Female,English,Chrome,Mac,900,1440,13.127133333333331,
1442,default,block2,mary,ai,0.16,7587,hear,42,hear,C,[],25,Yes,,Female,English,Chrome,Mac,900,1440,13.127133333333331,
1442,default,block2,pizza,ai,1,4211,MC,43,MC,MC,[],25,Yes,,Female,English,Chrome,Mac,900,1440,13.127133333333331,
1442,default,block2,danny,ai,0.14,6486,be_annoyed,44,be_annoyed,C,[],25,Yes,,Female,English,Chrome,Mac,900,1440,13.127133333333331,
1442,default,block2,jayden,ai,0.21,9255,admit,45,admit,C,[],25,Yes,,Female,English,Chrome,Mac,900,1440,13.127133333333331,
1442,default,block2,kids,ai,0.99,3688,MC,46,MC,MC,[],25,Yes,,Female,English,Chrome,Mac,900,1440,13.127133333333331,
1442,default,block2,josie,ai,0.46,7197,demonstrate,47,demonstrate,C,[],25,Yes,,Female,English,Chrome,Mac,900,1440,13.127133333333331,
1442,default,block2,hat,ai,0.97,3581,MC,48,MC,MC,[],25,Yes,,Female,English,Chrome,Mac,900,1440,13.127133333333331,
1442,default,block2,owen,ai,0.19,7437,be_right,49,be_right,C,[],25,Yes,,Female,English,Chrome,Mac,900,1440,13.127133333333331,
1442,default,block2,frank,ai,0.16,5902,announce,50,announce,C,[],25,Yes,,Female,English,Chrome,Mac,900,1440,13.127133333333331,
1442,default,block2,mia,ai,0.27,6389,think,51,think,C,[],25,Yes,,Female,English,Chrome,Mac,900,1440,13.127133333333331,
1442,default,block2,ballet,ai,0.99,3859,MC,52,MC,MC,[],25,Yes,,Female,English,Chrome,Mac,900,1440,13.127133333333331,
1442,default,block2,tony,ai,0.29,9982,inform,53,inform,C,[],25,Yes,,Female,English,Chrome,Mac,900,1440,13.127133333333331,
1442,default,block2,olivia,ai,0.26,27600,discover,54,discover,C,[],25,Yes,,Female,English,Chrome,Mac,900,1440,13.127133333333331,
1442,default,block2,emma,ai,0.31,10069,reveal,55,reveal,C,[],25,Yes,,Female,English,Chrome,Mac,900,1440,13.127133333333331,
1442,default,block2,garage,ai,0.97,3687,MC,56,MC,MC,[],25,Yes,,Female,English,Chrome,Mac,900,1440,13.127133333333331,
1442,default,block2,jon,ai,0.21,5781,suggest,57,suggest,C,[],25,Yes,,Female,English,Chrome,Mac,900,1440,13.127133333333331,
1227,default,block1,zoe,projective,0.8,29471,confess,5,confess,C,[],23,Yes,,Female,english,Safari,Mac,900,1440,14.545583333333331,
1227,default,block1,sophia,projective,0.01,36362,say,6,say,C,[],23,Yes,,Female,english,Safari,Mac,900,1440,14.545583333333331,
1227,default,block1,kids,projective,0.98,12478,MC,7,MC,MC,[],23,Yes,,Female,english,Safari,Mac,900,1440,14.545583333333331,
1227,default,block1,pizza,projective,0.98,10478,MC,8,MC,MC,[],23,Yes,,Female,english,Safari,Mac,900,1440,14.545583333333331,
1227,default,block1,ballet,projective,0.97,12098,MC,9,MC,MC,[],23,Yes,,Female,english,Safari,Mac,900,1440,14.545583333333331,
1227,default,block1,jayden,projective,0.55,16212,know,10,know,C,[],23,Yes,,Female,english,Safari,Mac,900,1440,14.545583333333331,
1227,default,block1,frank,projective,0,44519,pretend,11,pretend,C,[],23,Yes,,Female,english,Safari,Mac,900,1440,14.545583333333331,
1227,default,block1,josie,projective,0.96,17998,be_annoyed,12,be_annoyed,C,[],23,Yes,,Female,english,Safari,Mac,900,1440,14.545583333333331,
1227,default,block1,garage,projective,0.97,10823,MC,13,MC,MC,[],23,Yes,,Female,english,Safari,Mac,900,1440,14.545583333333331,
1227,default,block1,josh,projective,0.98,88065,hear,14,hear,C,[],23,Yes,,Female,english,Safari,Mac,900,1440,14.545583333333331,
1227,default,block1,emily,projective,0.68,13972,reveal,15,reveal,C,[],23,Yes,,Female,english,Safari,Mac,900,1440,14.545583333333331,
1227,default,block1,isabella,projective,0.47,14693,confirm,16,confirm,C,[],23,Yes,,Female,english,Safari,Mac,900,1440,14.545583333333331,
1227,default,block1,grace,projective,0.16,15692,establish,17,establish,C,[],23,Yes,,Female,english,Safari,Mac,900,1440,14.545583333333331,
1227,default,block1,muffins,projective,0.98,6611,MC,18,MC,MC,[],23,Yes,,Female,english,Safari,Mac,900,1440,14.545583333333331,
1227,default,block1,olivia,projective,0.78,19226,inform,19,inform,C,[],23,Yes,,Female,english,Safari,Mac,900,1440,14.545583333333331,
1227,default,block1,jackson,projective,0.02,11521,admit,20,admit,C,[],23,Yes,,Female,english,Safari,Mac,900,1440,14.545583333333331,
1227,default,block1,emma,projective,0.46,26115,discover,21,discover,C,[],23,Yes,,Female,english,Safari,Mac,900,1440,14.545583333333331,
1227,default,block1,julian,projective,0.37,16194,demonstrate,22,demonstrate,C,[],23,Yes,,Female,english,Safari,Mac,900,1440,14.545583333333331,
1227,default,block1,owen,projective,0.2,10378,suggest,23,suggest,C,[],23,Yes,,Female,english,Safari,Mac,900,1440,14.545583333333331,
1227,default,block1,charley,projective,0.17,5330,prove,24,prove,C,[],23,Yes,,Female,english,Safari,Mac,900,1440,14.545583333333331,
1227,default,block1,mia,projective,0.49,9929,acknowledge,25,acknowledge,C,[],23,Yes,,Female,english,Safari,Mac,900,1440,14.545583333333331,
1227,default,block1,mary,projective,0.02,5003,be_right,26,be_right,C,[],23,Yes,,Female,english,Safari,Mac,900,1440,14.545583333333331,
1227,default,block1,tony,projective,0.02,7006,think,27,think,C,[],23,Yes,,Female,english,Safari,Mac,900,1440,14.545583333333331,
1227,default,block1,jon,projective,0.97,10813,see,28,see,C,[],23,Yes,,Female,english,Safari,Mac,900,1440,14.545583333333331,
1227,default,block1,hat,projective,0.98,3464,MC,29,MC,MC,[],23,Yes,,Female,english,Safari,Mac,900,1440,14.545583333333331,
1227,default,block1,danny,projective,0.78,12850,announce,30,announce,C,[],23,Yes,,Female,english,Safari,Mac,900,1440,14.545583333333331,
1227,default,block2,pizza,ai,0.99,13608,MC,32,MC,MC,[],23,Yes,,Female,english,Safari,Mac,900,1440,14.545583333333331,
1227,default,block2,kids,ai,0.98,9126,MC,33,MC,MC,[],23,Yes,,Female,english,Safari,Mac,900,1440,14.545583333333331,
1227,default,block2,grace,ai,0.02,7454,establish,34,establish,C,[],23,Yes,,Female,english,Safari,Mac,900,1440,14.545583333333331,
1227,default,block2,garage,ai,0.99,8066,MC,35,MC,MC,[],23,Yes,,Female,english,Safari,Mac,900,1440,14.545583333333331,
1227,default,block2,sophia,ai,0.02,8183,say,36,say,C,[],23,Yes,,Female,english,Safari,Mac,900,1440,14.545583333333331,
1227,default,block2,mia,ai,0.04,7575,acknowledge,37,acknowledge,C,[],23,Yes,,Female,english,Safari,Mac,900,1440,14.545583333333331,
1227,default,block2,emma,ai,0.27,15308,discover,38,discover,C,[],23,Yes,,Female,english,Safari,Mac,900,1440,14.545583333333331,
1227,default,block2,owen,ai,0.06,9497,suggest,39,suggest,C,[],23,Yes,,Female,english,Safari,Mac,900,1440,14.545583333333331,
1227,default,block2,julian,ai,0.03,6533,demonstrate,40,demonstrate,C,[],23,Yes,,Female,english,Safari,Mac,900,1440,14.545583333333331,
1227,default,block2,josh,ai,0.01,4985,hear,41,hear,C,[],23,Yes,,Female,english,Safari,Mac,900,1440,14.545583333333331,
1227,default,block2,tony,ai,0.99,13664,think,42,think,C,[],23,Yes,,Female,english,Safari,Mac,900,1440,14.545583333333331,
1227,default,block2,frank,ai,0.98,13183,pretend,43,pretend,C,[],23,Yes,,Female,english,Safari,Mac,900,1440,14.545583333333331,
1227,default,block2,josie,ai,0.98,15906,be_annoyed,44,be_annoyed,C,[],23,Yes,,Female,english,Safari,Mac,900,1440,14.545583333333331,
1227,default,block2,jayden,ai,0.12,8581,know,45,know,C,[],23,Yes,,Female,english,Safari,Mac,900,1440,14.545583333333331,
1227,default,block2,hat,ai,1,4876,MC,46,MC,MC,[],23,Yes,,Female,english,Safari,Mac,900,1440,14.545583333333331,
1227,default,block2,mary,ai,0.46,14091,be_right,47,be_right,C,[],23,Yes,,Female,english,Safari,Mac,900,1440,14.545583333333331,
1227,default,block2,ballet,ai,0.99,10573,MC,48,MC,MC,[],23,Yes,,Female,english,Safari,Mac,900,1440,14.545583333333331,
1227,default,block2,jackson,ai,0.93,28338,admit,49,admit,C,[],23,Yes,,Female,english,Safari,Mac,900,1440,14.545583333333331,
1227,default,block2,emily,ai,0.95,9813,reveal,50,reveal,C,[],23,Yes,,Female,english,Safari,Mac,900,1440,14.545583333333331,
1227,default,block2,danny,ai,0.98,10159,announce,51,announce,C,[],23,Yes,,Female,english,Safari,Mac,900,1440,14.545583333333331,
1227,default,block2,jon,ai,0.31,11421,see,52,see,C,[],23,Yes,,Female,english,Safari,Mac,900,1440,14.545583333333331,
1227,default,block2,isabella,ai,0.22,15454,confirm,53,confirm,C,[],23,Yes,,Female,english,Safari,Mac,900,1440,14.545583333333331,
1227,default,block2,charley,ai,0.17,7445,prove,54,prove,C,[],23,Yes,,Female,english,Safari,Mac,900,1440,14.545583333333331,
1227,default,block2,muffins,ai,0.99,5938,MC,55,MC,MC,[],23,Yes,,Female,english,Safari,Mac,900,1440,14.545583333333331,
1227,default,block2,olivia,ai,0.01,9708,inform,56,inform,C,[],23,Yes,,Female,english,Safari,Mac,900,1440,14.545583333333331,
1227,default,block2,zoe,ai,0.61,18166,confess,57,confess,C,[],23,Yes,,Female,english,Safari,Mac,900,1440,14.545583333333331,
1243,default,block1,mary,ai,0.04,21125,discover,5,discover,C,[],18,Yes,,Female,english,Safari,Mac,900,1440,9.186266666666668,
1243,default,block1,charley,ai,0.03,14612,acknowledge,6,acknowledge,C,[],18,Yes,,Female,english,Safari,Mac,900,1440,9.186266666666668,
1243,default,block1,sophia,ai,0.06,8411,prove,7,prove,C,[],18,Yes,,Female,english,Safari,Mac,900,1440,9.186266666666668,
1243,default,block1,frank,ai,0.04,3895,think,8,think,C,[],18,Yes,,Female,english,Safari,Mac,900,1440,9.186266666666668,
1243,default,block1,jackson,ai,0.03,1969,see,9,see,C,[],18,Yes,,Female,english,Safari,Mac,900,1440,9.186266666666668,
1243,default,block1,olivia,ai,0.04,3179,demonstrate,10,demonstrate,C,[],18,Yes,,Female,english,Safari,Mac,900,1440,9.186266666666668,
1243,default,block1,pizza,ai,0.98,9373,MC,11,MC,MC,[],18,Yes,,Female,english,Safari,Mac,900,1440,9.186266666666668,
1243,default,block1,jayden,ai,0.02,7495,pretend,12,pretend,C,[],18,Yes,,Female,english,Safari,Mac,900,1440,9.186266666666668,
1243,default,block1,emma,ai,0.03,2862,say,13,say,C,[],18,Yes,,Female,english,Safari,Mac,900,1440,9.186266666666668,
1243,default,block1,zoe,ai,0.01,3582,announce,14,announce,C,[],18,Yes,,Female,english,Safari,Mac,900,1440,9.186266666666668,
1243,default,block1,owen,ai,0,3534,inform,15,inform,C,[],18,Yes,,Female,english,Safari,Mac,900,1440,9.186266666666668,
1243,default,block1,emily,ai,0.02,2562,confess,16,confess,C,[],18,Yes,,Female,english,Safari,Mac,900,1440,9.186266666666668,
1243,default,block1,danny,ai,0.01,2181,know,17,know,C,[],18,Yes,,Female,english,Safari,Mac,900,1440,9.186266666666668,
1243,default,block1,garage,ai,0.97,6822,MC,18,MC,MC,[],18,Yes,,Female,english,Safari,Mac,900,1440,9.186266666666668,
1243,default,block1,julian,ai,0.02,8454,hear,19,hear,C,[],18,Yes,,Female,english,Safari,Mac,900,1440,9.186266666666668,
1243,default,block1,grace,ai,0.01,2302,suggest,20,suggest,C,[],18,Yes,,Female,english,Safari,Mac,900,1440,9.186266666666668,
1243,default,block1,isabella,ai,0.03,3851,reveal,21,reveal,C,[],18,Yes,,Female,english,Safari,Mac,900,1440,9.186266666666668,
1243,default,block1,kids,ai,0.97,6667,MC,22,MC,MC,[],18,Yes,,Female,english,Safari,Mac,900,1440,9.186266666666668,
1243,default,block1,josh,ai,0,5652,be_annoyed,23,be_annoyed,C,[],18,Yes,,Female,english,Safari,Mac,900,1440,9.186266666666668,
1243,default,block1,hat,ai,0.96,6157,MC,24,MC,MC,[],18,Yes,,Female,english,Safari,Mac,900,1440,9.186266666666668,
1243,default,block1,jon,ai,0.01,4131,confirm,25,confirm,C,[],18,Yes,,Female,english,Safari,Mac,900,1440,9.186266666666668,
1243,default,block1,muffins,ai,0.96,3407,MC,26,MC,MC,[],18,Yes,,Female,english,Safari,Mac,900,1440,9.186266666666668,
1243,default,block1,tony,ai,0.02,3451,be_right,27,be_right,C,[],18,Yes,,Female,english,Safari,Mac,900,1440,9.186266666666668,
1243,default,block1,josie,ai,0.02,3943,establish,28,establish,C,[],18,Yes,,Female,english,Safari,Mac,900,1440,9.186266666666668,
1243,default,block1,mia,ai,0,3047,admit,29,admit,C,[],18,Yes,,Female,english,Safari,Mac,900,1440,9.186266666666668,
1243,default,block1,ballet,ai,0.98,4336,MC,30,MC,MC,[],18,Yes,,Female,english,Safari,Mac,900,1440,9.186266666666668,
1243,default,block2,josie,projective,0.04,10915,establish,32,establish,C,[],18,Yes,,Female,english,Safari,Mac,900,1440,9.186266666666668,
1243,default,block2,hat,projective,0.95,6702,MC,33,MC,MC,[],18,Yes,,Female,english,Safari,Mac,900,1440,9.186266666666668,
1243,default,block2,tony,projective,1,8304,be_right,34,be_right,C,[],18,Yes,,Female,english,Safari,Mac,900,1440,9.186266666666668,
1243,default,block2,frank,projective,0.97,4063,think,35,think,C,[],18,Yes,,Female,english,Safari,Mac,900,1440,9.186266666666668,
1243,default,block2,josh,projective,0.96,4119,be_annoyed,36,be_annoyed,C,[],18,Yes,,Female,english,Safari,Mac,900,1440,9.186266666666668,
1243,default,block2,owen,projective,0.98,3438,inform,37,inform,C,[],18,Yes,,Female,english,Safari,Mac,900,1440,9.186266666666668,
1243,default,block2,danny,projective,0.97,2569,know,38,know,C,[],18,Yes,,Female,english,Safari,Mac,900,1440,9.186266666666668,
1243,default,block2,emma,projective,0.97,3262,say,39,say,C,[],18,Yes,,Female,english,Safari,Mac,900,1440,9.186266666666668,
1243,default,block2,julian,projective,0.96,2822,hear,40,hear,C,[],18,Yes,,Female,english,Safari,Mac,900,1440,9.186266666666668,
1243,default,block2,mia,projective,0.96,3019,admit,41,admit,C,[],18,Yes,,Female,english,Safari,Mac,900,1440,9.186266666666668,
1243,default,block2,jackson,projective,1,1789,see,42,see,C,[],18,Yes,,Female,english,Safari,Mac,900,1440,9.186266666666668,
1243,default,block2,garage,projective,1,10672,MC,43,MC,MC,[],18,Yes,,Female,english,Safari,Mac,900,1440,9.186266666666668,
1243,default,block2,jayden,projective,0.99,3799,pretend,44,pretend,C,[],18,Yes,,Female,english,Safari,Mac,900,1440,9.186266666666668,
1243,default,block2,emily,projective,0.96,2181,confess,45,confess,C,[],18,Yes,,Female,english,Safari,Mac,900,1440,9.186266666666668,
1243,default,block2,isabella,projective,0.99,2690,reveal,46,reveal,C,[],18,Yes,,Female,english,Safari,Mac,900,1440,9.186266666666668,
1243,default,block2,ballet,projective,0.96,4472,MC,47,MC,MC,[],18,Yes,,Female,english,Safari,Mac,900,1440,9.186266666666668,
1243,default,block2,zoe,projective,0.97,2798,announce,48,announce,C,[],18,Yes,,Female,english,Safari,Mac,900,1440,9.186266666666668,
1243,default,block2,pizza,projective,0.97,5088,MC,49,MC,MC,[],18,Yes,,Female,english,Safari,Mac,900,1440,9.186266666666668,
1243,default,block2,muffins,projective,0.99,5700,MC,50,MC,MC,[],18,Yes,,Female,english,Safari,Mac,900,1440,9.186266666666668,
1243,default,block2,jon,projective,0.98,2594,confirm,51,confirm,C,[],18,Yes,,Female,english,Safari,Mac,900,1440,9.186266666666668,
1243,default,block2,kids,projective,0.97,3774,MC,52,MC,MC,[],18,Yes,,Female,english,Safari,Mac,900,1440,9.186266666666668,
1243,default,block2,grace,projective,0.97,2542,suggest,53,suggest,C,[],18,Yes,,Female,english,Safari,Mac,900,1440,9.186266666666668,
1243,default,block2,mary,projective,0.97,2026,discover,54,discover,C,[],18,Yes,,Female,english,Safari,Mac,900,1440,9.186266666666668,
1243,default,block2,sophia,projective,0.97,2670,prove,55,prove,C,[],18,Yes,,Female,english,Safari,Mac,900,1440,9.186266666666668,
1243,default,block2,charley,projective,0.99,1961,acknowledge,56,acknowledge,C,[],18,Yes,,Female,english,Safari,Mac,900,1440,9.186266666666668,
1243,default,block2,olivia,projective,0.99,1830,demonstrate,57,demonstrate,C,[],18,Yes,,Female,english,Safari,Mac,900,1440,9.186266666666668,
1286,default,block1,owen,projective,0.15,11964,pretend,5,pretend,C,[],29,Yes,,Female,English,Chrome,Mac,800,1280,5.865583333333333,
1286,default,block1,charley,projective,0.97,8633,hear,6,hear,C,[],29,Yes,,Female,English,Chrome,Mac,800,1280,5.865583333333333,
1286,default,block1,jon,projective,0.2,7238,think,7,think,C,[],29,Yes,,Female,English,Chrome,Mac,800,1280,5.865583333333333,
1286,default,block1,mia,projective,0.95,6785,admit,8,admit,C,[],29,Yes,,Female,English,Chrome,Mac,800,1280,5.865583333333333,
1286,default,block1,muffins,projective,0.99,30025,MC,9,MC,MC,[],29,Yes,,Female,English,Chrome,Mac,800,1280,5.865583333333333,
1286,default,block1,mary,projective,0.16,8108,confirm,10,confirm,C,[],29,Yes,,Female,English,Chrome,Mac,800,1280,5.865583333333333,
1286,default,block1,emily,projective,0.97,3582,confess,11,confess,C,[],29,Yes,,Female,English,Chrome,Mac,800,1280,5.865583333333333,
1286,default,block1,danny,projective,0.96,6040,be_annoyed,12,be_annoyed,C,[],29,Yes,,Female,English,Chrome,Mac,800,1280,5.865583333333333,
1286,default,block1,zoe,projective,0.81,9447,prove,13,prove,C,[],29,Yes,,Female,English,Chrome,Mac,800,1280,5.865583333333333,
1286,default,block1,isabella,projective,0.31,6248,establish,14,establish,C,[],29,Yes,,Female,English,Chrome,Mac,800,1280,5.865583333333333,
1286,default,block1,jayden,projective,0.95,6060,inform,15,inform,C,[],29,Yes,,Female,English,Chrome,Mac,800,1280,5.865583333333333,
1286,default,block1,josie,projective,0.94,20766,know,16,know,C,[],29,Yes,,Female,English,Chrome,Mac,800,1280,5.865583333333333,
1286,default,block1,emma,projective,0.95,10573,reveal,17,reveal,C,[],29,Yes,,Female,English,Chrome,Mac,800,1280,5.865583333333333,
1286,default,block1,sophia,projective,0.25,2701,say,18,say,C,[],29,Yes,,Female,English,Chrome,Mac,800,1280,5.865583333333333,
1286,default,block1,grace,projective,0.97,2735,announce,19,announce,C,[],29,Yes,,Female,English,Chrome,Mac,800,1280,5.865583333333333,
1286,default,block1,julian,projective,0.36,3297,suggest,20,suggest,C,[],29,Yes,,Female,English,Chrome,Mac,800,1280,5.865583333333333,
1286,default,block1,pizza,projective,0.94,4779,MC,21,MC,MC,[],29,Yes,,Female,English,Chrome,Mac,800,1280,5.865583333333333,
1286,default,block1,ballet,projective,0.97,5786,MC,22,MC,MC,[],29,Yes,,Female,English,Chrome,Mac,800,1280,5.865583333333333,
1286,default,block1,frank,projective,0.97,3473,see,23,see,C,[],29,Yes,,Female,English,Chrome,Mac,800,1280,5.865583333333333,
1286,default,block1,josh,projective,0.3,2557,be_right,24,be_right,C,[],29,Yes,,Female,English,Chrome,Mac,800,1280,5.865583333333333,
1286,default,block1,hat,projective,0.98,4381,MC,25,MC,MC,[],29,Yes,,Female,English,Chrome,Mac,800,1280,5.865583333333333,
1286,default,block1,kids,projective,0.95,4075,MC,26,MC,MC,[],29,Yes,,Female,English,Chrome,Mac,800,1280,5.865583333333333,
1286,default,block1,olivia,projective,0.44,4743,acknowledge,27,acknowledge,C,[],29,Yes,,Female,English,Chrome,Mac,800,1280,5.865583333333333,
1286,default,block1,garage,projective,0.99,3077,MC,28,MC,MC,[],29,Yes,,Female,English,Chrome,Mac,800,1280,5.865583333333333,
1286,default,block1,jackson,projective,0.72,4945,discover,29,discover,C,[],29,Yes,,Female,English,Chrome,Mac,800,1280,5.865583333333333,
1286,default,block1,tony,projective,0.35,2663,demonstrate,30,demonstrate,C,[],29,Yes,,Female,English,Chrome,Mac,800,1280,5.865583333333333,
1286,default,block2,ballet,ai,0.55,7872,MC,32,MC,MC,[],29,Yes,,Female,English,Chrome,Mac,800,1280,5.865583333333333,
1286,default,block2,olivia,ai,0.55,4290,acknowledge,33,acknowledge,C,[],29,Yes,,Female,English,Chrome,Mac,800,1280,5.865583333333333,
1286,default,block2,emma,ai,0.61,3104,reveal,34,reveal,C,[],29,Yes,,Female,English,Chrome,Mac,800,1280,5.865583333333333,
1286,default,block2,hat,ai,0.99,3431,MC,35,MC,MC,[],29,Yes,,Female,English,Chrome,Mac,800,1280,5.865583333333333,
1286,default,block2,kids,ai,0.68,2261,MC,36,MC,MC,[],29,Yes,,Female,English,Chrome,Mac,800,1280,5.865583333333333,
1286,default,block2,muffins,ai,0.65,4249,MC,37,MC,MC,[],29,Yes,,Female,English,Chrome,Mac,800,1280,5.865583333333333,
1286,default,block2,josie,ai,0.64,2186,know,38,know,C,[],29,Yes,,Female,English,Chrome,Mac,800,1280,5.865583333333333,
1286,default,block2,jayden,ai,0.69,2901,inform,39,inform,C,[],29,Yes,,Female,English,Chrome,Mac,800,1280,5.865583333333333,
1286,default,block2,owen,ai,0.61,3295,pretend,40,pretend,C,[],29,Yes,,Female,English,Chrome,Mac,800,1280,5.865583333333333,
1286,default,block2,jon,ai,0.25,7923,think,41,think,C,[],29,Yes,,Female,English,Chrome,Mac,800,1280,5.865583333333333,
1286,default,block2,garage,ai,0.99,4075,MC,42,MC,MC,[],29,Yes,,Female,English,Chrome,Mac,800,1280,5.865583333333333,
1286,default,block2,frank,ai,0.37,3893,see,43,see,C,[],29,Yes,,Female,English,Chrome,Mac,800,1280,5.865583333333333,
1286,default,block2,pizza,ai,0.97,2951,MC,44,MC,MC,[],29,Yes,,Female,English,Chrome,Mac,800,1280,5.865583333333333,
1286,default,block2,mary,ai,0.4,4287,confirm,45,confirm,C,[],29,Yes,,Female,English,Chrome,Mac,800,1280,5.865583333333333,
1286,default,block2,tony,ai,0.04,6901,demonstrate,46,demonstrate,C,[],29,Yes,,Female,English,Chrome,Mac,800,1280,5.865583333333333,
1286,default,block2,mia,ai,0.24,4678,admit,47,admit,C,[],29,Yes,,Female,English,Chrome,Mac,800,1280,5.865583333333333,
1286,default,block2,emily,ai,0.24,1640,confess,48,confess,C,[],29,Yes,,Female,English,Chrome,Mac,800,1280,5.865583333333333,
1286,default,block2,josh,ai,0.29,2344,be_right,49,be_right,C,[],29,Yes,,Female,English,Chrome,Mac,800,1280,5.865583333333333,
1286,default,block2,jackson,ai,0.25,2144,discover,50,discover,C,[],29,Yes,,Female,English,Chrome,Mac,800,1280,5.865583333333333,
1286,default,block2,zoe,ai,0.14,3966,prove,51,prove,C,[],29,Yes,,Female,English,Chrome,Mac,800,1280,5.865583333333333,
1286,default,block2,isabella,ai,0.22,3872,establish,52,establish,C,[],29,Yes,,Female,English,Chrome,Mac,800,1280,5.865583333333333,
1286,default,block2,julian,ai,0.28,3400,suggest,53,suggest,C,[],29,Yes,,Female,English,Chrome,Mac,800,1280,5.865583333333333,
1286,default,block2,sophia,ai,0.18,3295,say,54,say,C,[],29,Yes,,Female,English,Chrome,Mac,800,1280,5.865583333333333,
1286,default,block2,danny,ai,0.21,4223,be_annoyed,55,be_annoyed,C,[],29,Yes,,Female,English,Chrome,Mac,800,1280,5.865583333333333,
1286,default,block2,grace,ai,0.14,9165,announce,56,announce,C,[],29,Yes,,Female,English,Chrome,Mac,800,1280,5.865583333333333,
1286,default,block2,charley,ai,0.32,2847,hear,57,hear,C,[],29,Yes,,Female,English,Chrome,Mac,800,1280,5.865583333333333,
1271,default,block1,kids,ai,1,14619,MC,5,MC,MC,[],19,Yes,,Female,English,Chrome,Mac,900,1440,8.72015,
1271,default,block1,danny,ai,0,9107,suggest,6,suggest,C,[],19,Yes,,Female,English,Chrome,Mac,900,1440,8.72015,
1271,default,block1,grace,ai,0,8685,discover,7,discover,C,[],19,Yes,,Female,English,Chrome,Mac,900,1440,8.72015,
1271,default,block1,josie,ai,0.01,11010,reveal,8,reveal,C,[],19,Yes,,Female,English,Chrome,Mac,900,1440,8.72015,
1271,default,block1,jon,ai,0.12,12424,announce,9,announce,C,[],19,Yes,,Female,English,Chrome,Mac,900,1440,8.72015,
1271,default,block1,pizza,ai,1,6385,MC,10,MC,MC,[],19,Yes,,Female,English,Chrome,Mac,900,1440,8.72015,
1271,default,block1,frank,ai,0.01,11712,know,11,know,C,[],19,Yes,,Female,English,Chrome,Mac,900,1440,8.72015,
1271,default,block1,hat,ai,1,5599,MC,12,MC,MC,[],19,Yes,,Female,English,Chrome,Mac,900,1440,8.72015,
1271,default,block1,emily,ai,0.01,10459,confess,13,confess,C,[],19,Yes,,Female,English,Chrome,Mac,900,1440,8.72015,
1271,default,block1,sophia,ai,0,7258,pretend,14,pretend,C,[],19,Yes,,Female,English,Chrome,Mac,900,1440,8.72015,
1271,default,block1,mia,ai,0,9407,be_annoyed,15,be_annoyed,C,[],19,Yes,,Female,English,Chrome,Mac,900,1440,8.72015,
1271,default,block1,jayden,ai,0,7101,hear,16,hear,C,[],19,Yes,,Female,English,Chrome,Mac,900,1440,8.72015,
1271,default,block1,jackson,ai,0,8919,say,17,say,C,[],19,Yes,,Female,English,Chrome,Mac,900,1440,8.72015,
1271,default,block1,julian,ai,0,7733,see,18,see,C,[],19,Yes,,Female,English,Chrome,Mac,900,1440,8.72015,
1271,default,block1,isabella,ai,0.07,12089,confirm,19,confirm,C,[],19,Yes,,Female,English,Chrome,Mac,900,1440,8.72015,
1271,default,block1,garage,ai,1,6905,MC,20,MC,MC,[],19,Yes,,Female,English,Chrome,Mac,900,1440,8.72015,
1271,default,block1,olivia,ai,0.04,13505,acknowledge,21,acknowledge,C,[],19,Yes,,Female,English,Chrome,Mac,900,1440,8.72015,
1271,default,block1,mary,ai,0,9255,be_right,22,be_right,C,[],19,Yes,,Female,English,Chrome,Mac,900,1440,8.72015,
1271,default,block1,emma,ai,0,9651,demonstrate,23,demonstrate,C,[],19,Yes,,Female,English,Chrome,Mac,900,1440,8.72015,
1271,default,block1,charley,ai,0,7846,inform,24,inform,C,[],19,Yes,,Female,English,Chrome,Mac,900,1440,8.72015,
1271,default,block1,tony,ai,0.09,8939,establish,25,establish,C,[],19,Yes,,Female,English,Chrome,Mac,900,1440,8.72015,
1271,default,block1,muffins,ai,1,6391,MC,26,MC,MC,[],19,Yes,,Female,English,Chrome,Mac,900,1440,8.72015,
1271,default,block1,zoe,ai,0,9721,think,27,think,C,[],19,Yes,,Female,English,Chrome,Mac,900,1440,8.72015,
1271,default,block1,owen,ai,0,7208,admit,28,admit,C,[],19,Yes,,Female,English,Chrome,Mac,900,1440,8.72015,
1271,default,block1,josh,ai,0,8929,prove,29,prove,C,[],19,Yes,,Female,English,Chrome,Mac,900,1440,8.72015,
1271,default,block1,ballet,ai,1,6054,MC,30,MC,MC,[],19,Yes,,Female,English,Chrome,Mac,900,1440,8.72015,
1271,default,block2,garage,projective,1,10952,MC,32,MC,MC,[],19,Yes,,Female,English,Chrome,Mac,900,1440,8.72015,
1271,default,block2,ballet,projective,0.98,5464,MC,33,MC,MC,[],19,Yes,,Female,English,Chrome,Mac,900,1440,8.72015,
1271,default,block2,mia,projective,0.83,14347,be_annoyed,34,be_annoyed,C,[],19,Yes,,Female,English,Chrome,Mac,900,1440,8.72015,
1271,default,block2,owen,projective,0.83,10031,admit,35,admit,C,[],19,Yes,,Female,English,Chrome,Mac,900,1440,8.72015,
1271,default,block2,tony,projective,0.17,9124,establish,36,establish,C,[],19,Yes,,Female,English,Chrome,Mac,900,1440,8.72015,
1271,default,block2,charley,projective,0.81,8306,inform,37,inform,C,[],19,Yes,,Female,English,Chrome,Mac,900,1440,8.72015,
1271,default,block2,emily,projective,0.86,5745,confess,38,confess,C,[],19,Yes,,Female,English,Chrome,Mac,900,1440,8.72015,
1271,default,block2,isabella,projective,0.26,8405,confirm,39,confirm,C,[],19,Yes,,Female,English,Chrome,Mac,900,1440,8.72015,
1271,default,block2,sophia,projective,0,6573,pretend,40,pretend,C,[],19,Yes,,Female,English,Chrome,Mac,900,1440,8.72015,
1271,default,block2,zoe,projective,0.01,9107,think,41,think,C,[],19,Yes,,Female,English,Chrome,Mac,900,1440,8.72015,
1271,default,block2,kids,projective,0.99,8049,MC,42,MC,MC,[],19,Yes,,Female,English,Chrome,Mac,900,1440,8.72015,
1271,default,block2,pizza,projective,0.99,4842,MC,43,MC,MC,[],19,Yes,,Female,English,Chrome,Mac,900,1440,8.72015,
1271,default,block2,jayden,projective,0.42,10340,hear,44,hear,C,[],19,Yes,,Female,English,Chrome,Mac,900,1440,8.72015,
1271,default,block2,hat,projective,0.99,5061,MC,45,MC,MC,[],19,Yes,,Female,English,Chrome,Mac,900,1440,8.72015,
1271,default,block2,josh,projective,0.4,11039,prove,46,prove,C,[],19,Yes,,Female,English,Chrome,Mac,900,1440,8.72015,
1271,default,block2,mary,projective,0,6919,be_right,47,be_right,C,[],19,Yes,,Female,English,Chrome,Mac,900,1440,8.72015,
1271,default,block2,danny,projective,0.15,10969,suggest,48,suggest,C,[],19,Yes,,Female,English,Chrome,Mac,900,1440,8.72015,
1271,default,block2,julian,projective,0.72,7234,see,49,see,C,[],19,Yes,,Female,English,Chrome,Mac,900,1440,8.72015,
1271,default,block2,muffins,projective,0.99,4291,MC,50,MC,MC,[],19,Yes,,Female,English,Chrome,Mac,900,1440,8.72015,
1271,default,block2,jackson,projective,0.32,7179,say,51,say,C,[],19,Yes,,Female,English,Chrome,Mac,900,1440,8.72015,
1271,default,block2,emma,projective,0.33,13941,demonstrate,52,demonstrate,C,[],19,Yes,,Female,English,Chrome,Mac,900,1440,8.72015,
1271,default,block2,jon,projective,0.12,5448,announce,53,announce,C,[],19,Yes,,Female,English,Chrome,Mac,900,1440,8.72015,
1271,default,block2,frank,projective,0.77,7274,know,54,know,C,[],19,Yes,,Female,English,Chrome,Mac,900,1440,8.72015,
1271,default,block2,josie,projective,0.77,6281,reveal,55,reveal,C,[],19,Yes,,Female,English,Chrome,Mac,900,1440,8.72015,
1271,default,block2,grace,projective,0.76,5543,discover,56,discover,C,[],19,Yes,,Female,English,Chrome,Mac,900,1440,8.72015,
1271,default,block2,olivia,projective,0.61,13296,acknowledge,57,acknowledge,C,[],19,Yes,,Female,English,Chrome,Mac,900,1440,8.72015,
1350,default,block1,josie,projective,0.16,9932,suggest,5,suggest,C,[],20,Yes,,Female,Language,Chrome,Windows,864,1536,4.636216666666667,
1350,default,block1,muffins,projective,0.74,7540,MC,6,MC,MC,[],20,Yes,,Female,Language,Chrome,Windows,864,1536,4.636216666666667,
1350,default,block1,ballet,projective,0.84,6349,MC,7,MC,MC,[],20,Yes,,Female,Language,Chrome,Windows,864,1536,4.636216666666667,
1350,default,block1,jon,projective,0.2,6412,confess,8,confess,C,[],20,Yes,,Female,Language,Chrome,Windows,864,1536,4.636216666666667,
1350,default,block1,hat,projective,0.85,5055,MC,9,MC,MC,[],20,Yes,,Female,Language,Chrome,Windows,864,1536,4.636216666666667,
1350,default,block1,frank,projective,0.26,3929,know,10,know,C,[],20,Yes,,Female,Language,Chrome,Windows,864,1536,4.636216666666667,
1350,default,block1,kids,projective,0.82,4564,MC,11,MC,MC,[],20,Yes,,Female,Language,Chrome,Windows,864,1536,4.636216666666667,
1350,default,block1,owen,projective,0.13,9375,be_right,12,be_right,C,[],20,Yes,,Female,Language,Chrome,Windows,864,1536,4.636216666666667,
1350,default,block1,olivia,projective,0.15,3073,hear,13,hear,C,[],20,Yes,,Female,Language,Chrome,Windows,864,1536,4.636216666666667,
1350,default,block1,charley,projective,0.24,6804,confirm,14,confirm,C,[],20,Yes,,Female,Language,Chrome,Windows,864,1536,4.636216666666667,
1350,default,block1,mia,projective,0.28,3790,discover,15,discover,C,[],20,Yes,,Female,Language,Chrome,Windows,864,1536,4.636216666666667,
1350,default,block1,sophia,projective,0.12,4370,announce,16,announce,C,[],20,Yes,,Female,Language,Chrome,Windows,864,1536,4.636216666666667,
1350,default,block1,pizza,projective,0.8,16336,MC,17,MC,MC,[],20,Yes,,Female,Language,Chrome,Windows,864,1536,4.636216666666667,
1350,default,block1,isabella,projective,0.15,5567,pretend,18,pretend,C,[],20,Yes,,Female,Language,Chrome,Windows,864,1536,4.636216666666667,
1350,default,block1,mary,projective,0.19,3289,say,19,say,C,[],20,Yes,,Female,Language,Chrome,Windows,864,1536,4.636216666666667,
1350,default,block1,josh,projective,0.18,4584,think,20,think,C,[],20,Yes,,Female,Language,Chrome,Windows,864,1536,4.636216666666667,
1350,default,block1,tony,projective,0.14,2682,admit,21,admit,C,[],20,Yes,,Female,Language,Chrome,Windows,864,1536,4.636216666666667,
1350,default,block1,emma,projective,0.15,3416,demonstrate,22,demonstrate,C,[],20,Yes,,Female,Language,Chrome,Windows,864,1536,4.636216666666667,
1350,default,block1,jackson,projective,0.18,2267,establish,23,establish,C,[],20,Yes,,Female,Language,Chrome,Windows,864,1536,4.636216666666667,
1350,default,block1,zoe,projective,0.14,2254,be_annoyed,24,be_annoyed,C,[],20,Yes,,Female,Language,Chrome,Windows,864,1536,4.636216666666667,
1350,default,block1,danny,projective,0.18,2090,reveal,25,reveal,C,[],20,Yes,,Female,Language,Chrome,Windows,864,1536,4.636216666666667,
1350,default,block1,emily,projective,0.12,2189,inform,26,inform,C,[],20,Yes,,Female,Language,Chrome,Windows,864,1536,4.636216666666667,
1350,default,block1,jayden,projective,0.07,2328,prove,27,prove,C,[],20,Yes,,Female,Language,Chrome,Windows,864,1536,4.636216666666667,
1350,default,block1,julian,projective,0.06,9742,acknowledge,28,acknowledge,C,[],20,Yes,,Female,Language,Chrome,Windows,864,1536,4.636216666666667,
1350,default,block1,grace,projective,0.09,2227,see,29,see,C,[],20,Yes,,Female,Language,Chrome,Windows,864,1536,4.636216666666667,
1350,default,block1,garage,projective,0.79,2268,MC,30,MC,MC,[],20,Yes,,Female,Language,Chrome,Windows,864,1536,4.636216666666667,
1350,default,block2,jayden,ai,0.82,8708,prove,32,prove,C,[],20,Yes,,Female,Language,Chrome,Windows,864,1536,4.636216666666667,
1350,default,block2,mary,ai,0.42,8101,say,33,say,C,[],20,Yes,,Female,Language,Chrome,Windows,864,1536,4.636216666666667,
1350,default,block2,josh,ai,0.33,6108,think,34,think,C,[],20,Yes,,Female,Language,Chrome,Windows,864,1536,4.636216666666667,
1350,default,block2,jackson,ai,0.34,1748,establish,35,establish,C,[],20,Yes,,Female,Language,Chrome,Windows,864,1536,4.636216666666667,
1350,default,block2,muffins,ai,0.61,2139,MC,36,MC,MC,[],20,Yes,,Female,Language,Chrome,Windows,864,1536,4.636216666666667,
1350,default,block2,emma,ai,0.27,3327,demonstrate,37,demonstrate,C,[],20,Yes,,Female,Language,Chrome,Windows,864,1536,4.636216666666667,
1350,default,block2,tony,ai,0.32,6081,admit,38,admit,C,[],20,Yes,,Female,Language,Chrome,Windows,864,1536,4.636216666666667,
