workerid,proliferate.condition,block,content,question_type,response,rt,short_trigger,slide_number_in_experiment,trigger,trigger_class,catch_trials,subject_information.age,subject_information.american,subject_information.comments,subject_information.gender,subject_information.language,system.Browser,system.OS,system.screenH,system.screenW,time_in_minutes,error
22,default,block1,charley,projective,0,12822,admit,5,admit,C,[],23,Yes,N/A,Female,English,Chrome,Mac,900,1440,5.071183333333333,
22,default,block1,danny,projective,0.01,7406,discover,6,discover,C,[],23,Yes,N/A,Female,English,Chrome,Mac,900,1440,5.071183333333333,
22,default,block1,josie,projective,0.98,7657,be_annoyed,7,be_annoyed,C,[],23,Yes,N/A,Female,English,Chrome,Mac,900,1440,5.071183333333333,
22,default,block1,grace,projective,0.99,7700,know,8,know,C,[],23,Yes,N/A,Female,English,Chrome,Mac,900,1440,5.071183333333333,
22,default,block1,jackson,projective,0,6023,suggest,9,suggest,C,[],23,Yes,N/A,Female,English,Chrome,Mac,900,1440,5.071183333333333,
22,default,block1,garage,projective,0.97,5004,MC,10,MC,MC,[],23,Yes,N/A,Female,English,Chrome,Mac,900,1440,5.071183333333333,
22,default,block1,muffins,projective,0.97,5257,MC,11,MC,MC,[],23,Yes,N/A,Female,English,Chrome,Mac,900,1440,5.071183333333333,
22,default,block1,jon,projective,0.02,4667,see,12,see,C,[],23,Yes,N/A,Female,English,Chrome,Mac,900,1440,5.071183333333333,
22,default,block1,mary,projective,0.02,7926,be_right,13,be_right,C,[],23,Yes,N/A,Female,English,Chrome,Mac,900,1440,5.071183333333333,
22,default,block1,kids,projective,0.98,3716,MC,14,MC,MC,[],23,Yes,N/A,Female,English,Chrome,Mac,900,1440,5.071183333333333,
22,default,block1,josh,projective,0.04,3661,say,15,say,C,[],23,Yes,N/A,Female,English,Chrome,Mac,900,1440,5.071183333333333,
22,default,block1,isabella,projective,0.01,4647,confess,16,confess,C,[],23,Yes,N/A,Female,English,Chrome,Mac,900,1440,5.071183333333333,
22,default,block1,jayden,projective,0.01,3003,think,17,think,C,[],23,Yes,N/A,Female,English,Chrome,Mac,900,1440,5.071183333333333,
22,default,block1,mia,projective,0.97,9053,acknowledge,18,acknowledge,C,[],23,Yes,N/A,Female,English,Chrome,Mac,900,1440,5.071183333333333,
22,default,block1,ballet,projective,0.96,2912,MC,19,MC,MC,[],23,Yes,N/A,Female,English,Chrome,Mac,900,1440,5.071183333333333,
22,default,block1,zoe,projective,0.01,3791,hear,20,hear,C,[],23,Yes,N/A,Female,English,Chrome,Mac,900,1440,5.071183333333333,
22,default,block1,olivia,projective,0,5354,inform,21,inform,C,[],23,Yes,N/A,Female,English,Chrome,Mac,900,1440,5.071183333333333,
22,default,block1,tony,projective,0.01,3493,establish,22,establish,C,[],23,Yes,N/A,Female,English,Chrome,Mac,900,1440,5.071183333333333,
22,default,block1,emily,projective,0.01,6525,pretend,23,pretend,C,[],23,Yes,N/A,Female,English,Chrome,Mac,900,1440,5.071183333333333,
22,default,block1,hat,projective,0.96,2983,MC,24,MC,MC,[],23,Yes,N/A,Female,English,Chrome,Mac,900,1440,5.071183333333333,
22,default,block1,emma,projective,0,5600,prove,25,prove,C,[],23,Yes,N/A,Female,English,Chrome,Mac,900,1440,5.071183333333333,
22,default,block1,sophia,projective,0.01,3441,demonstrate,26,demonstrate,C,[],23,Yes,N/A,Female,English,Chrome,Mac,900,1440,5.071183333333333,
22,default,block1,frank,projective,0.98,4062,reveal,27,reveal,C,[],23,Yes,N/A,Female,English,Chrome,Mac,900,1440,5.071183333333333,
22,default,block1,julian,projective,0.05,5026,confirm,28,confirm,C,[],23,Yes,N/A,Female,English,Chrome,Mac,900,1440,5.071183333333333,
22,default,block1,owen,projective,0.99,4035,announce,29,announce,C,[],23,Yes,N/A,Female,English,Chrome,Mac,900,1440,5.071183333333333,
22,default,block1,pizza,projective,0.97,2426,MC,30,MC,MC,[],23,Yes,N/A,Female,English,Chrome,Mac,900,1440,5.071183333333333,
22,default,block2,jon,ai,0.04,12773,see,32,see,C,[],23,Yes,N/A,Female,English,Chrome,Mac,900,1440,5.071183333333333,
22,default,block2,pizza,ai,0.99,8615,MC,33,MC,MC,[],23,Yes,N/A,Female,English,Chrome,Mac,900,1440,5.071183333333333,
22,default,block2,kids,ai,0.99,3078,MC,34,MC,MC,[],23,Yes,N/A,Female,English,Chrome,Mac,900,1440,5.071183333333333,
22,default,block2,grace,ai,0.03,6628,know,35,know,C,[],23,Yes,N/A,Female,English,Chrome,Mac,900,1440,5.071183333333333,
22,default,block2,josh,ai,0.02,4989,say,36,say,C,[],23,Yes,N/A,Female,English,Chrome,Mac,900,1440,5.071183333333333,
22,default,block2,sophia,ai,0.03,3564,demonstrate,37,demonstrate,C,[],23,Yes,N/A,Female,English,Chrome,Mac,900,1440,5.071183333333333,
22,default,block2,olivia,ai,0,4636,inform,38,inform,C,[],23,Yes,N/A,Female,English,Chrome,Mac,900,1440,5.071183333333333,
22,default,block2,jayden,ai,0.02,3662,think,39,think,C,[],23,Yes,N/A,Female,English,Chrome,Mac,900,1440,5.071183333333333,
22,default,block2,tony,ai,0.01,3791,establish,40,establish,C,[],23,Yes,N/A,Female,English,Chrome,Mac,900,1440,5.071183333333333,
22,default,block2,danny,ai,0.02,4160,discover,41,discover,C,[],23,Yes,N/A,Female,English,Chrome,Mac,900,1440,5.071183333333333,
22,default,block2,jackson,ai,0.03,3215,suggest,42,suggest,C,[],23,Yes,N/A,Female,English,Chrome,Mac,900,1440,5.071183333333333,
22,default,block2,frank,ai,0,9049,reveal,43,reveal,C,[],23,Yes,N/A,Female,English,Chrome,Mac,900,1440,5.071183333333333,
22,default,block2,zoe,ai,0.01,4364,hear,44,hear,C,[],23,Yes,N/A,Female,English,Chrome,Mac,900,1440,5.071183333333333,
22,default,block2,emily,ai,0.02,4014,pretend,45,pretend,C,[],23,Yes,N/A,Female,English,Chrome,Mac,900,1440,5.071183333333333,
22,default,block2,josie,ai,0.02,3292,be_annoyed,46,be_annoyed,C,[],23,Yes,N/A,Female,English,Chrome,Mac,900,1440,5.071183333333333,
22,default,block2,emma,ai,0.02,4072,prove,47,prove,C,[],23,Yes,N/A,Female,English,Chrome,Mac,900,1440,5.071183333333333,
22,default,block2,ballet,ai,0.98,3317,MC,48,MC,MC,[],23,Yes,N/A,Female,English,Chrome,Mac,900,1440,5.071183333333333,
22,default,block2,charley,ai,0.01,4452,admit,49,admit,C,[],23,Yes,N/A,Female,English,Chrome,Mac,900,1440,5.071183333333333,
22,default,block2,julian,ai,0.04,2578,confirm,50,confirm,C,[],23,Yes,N/A,Female,English,Chrome,Mac,900,1440,5.071183333333333,
22,default,block2,mary,ai,0.01,4776,be_right,51,be_right,C,[],23,Yes,N/A,Female,English,Chrome,Mac,900,1440,5.071183333333333,
22,default,block2,hat,ai,0.98,2241,MC,52,MC,MC,[],23,Yes,N/A,Female,English,Chrome,Mac,900,1440,5.071183333333333,
22,default,block2,garage,ai,0.95,1940,MC,53,MC,MC,[],23,Yes,N/A,Female,English,Chrome,Mac,900,1440,5.071183333333333,
22,default,block2,muffins,ai,0.97,2635,MC,54,MC,MC,[],23,Yes,N/A,Female,English,Chrome,Mac,900,1440,5.071183333333333,
22,default,block2,owen,ai,0.01,2687,announce,55,announce,C,[],23,Yes,N/A,Female,English,Chrome,Mac,900,1440,5.071183333333333,
22,default,block2,isabella,ai,0.03,4166,confess,56,confess,C,[],23,Yes,N/A,Female,English,Chrome,Mac,900,1440,5.071183333333333,
22,default,block2,mia,ai,0.02,5017,acknowledge,57,acknowledge,C,[],23,Yes,N/A,Female,English,Chrome,Mac,900,1440,5.071183333333333,
25,default,block1,mary,projective,0.02,29615,announce,5,announce,C,[],54,Yes,Interesting,Female,English,Chrome,Windows,768,1366,12.775266666666669,
25,default,block1,charley,projective,0.98,26882,admit,6,admit,C,[],54,Yes,Interesting,Female,English,Chrome,Windows,768,1366,12.775266666666669,
25,default,block1,emily,projective,0.49,22276,establish,7,establish,C,[],54,Yes,Interesting,Female,English,Chrome,Windows,768,1366,12.775266666666669,
25,default,block1,owen,projective,0.02,21017,confirm,8,confirm,C,[],54,Yes,Interesting,Female,English,Chrome,Windows,768,1366,12.775266666666669,
25,default,block1,ballet,projective,0.99,8757,MC,9,MC,MC,[],54,Yes,Interesting,Female,English,Chrome,Windows,768,1366,12.775266666666669,
25,default,block1,pizza,projective,0.98,8839,MC,10,MC,MC,[],54,Yes,Interesting,Female,English,Chrome,Windows,768,1366,12.775266666666669,
25,default,block1,muffins,projective,0.98,9019,MC,11,MC,MC,[],54,Yes,Interesting,Female,English,Chrome,Windows,768,1366,12.775266666666669,
25,default,block1,zoe,projective,0.98,23199,inform,12,inform,C,[],54,Yes,Interesting,Female,English,Chrome,Windows,768,1366,12.775266666666669,
25,default,block1,kids,projective,0.99,10816,MC,13,MC,MC,[],54,Yes,Interesting,Female,English,Chrome,Windows,768,1366,12.775266666666669,
25,default,block1,garage,projective,0.99,9732,MC,14,MC,MC,[],54,Yes,Interesting,Female,English,Chrome,Windows,768,1366,12.775266666666669,
25,default,block1,jackson,projective,0.03,10686,hear,15,hear,C,[],54,Yes,Interesting,Female,English,Chrome,Windows,768,1366,12.775266666666669,
25,default,block1,isabella,projective,0.02,12544,think,16,think,C,[],54,Yes,Interesting,Female,English,Chrome,Windows,768,1366,12.775266666666669,
25,default,block1,olivia,projective,0.01,18721,reveal,17,reveal,C,[],54,Yes,Interesting,Female,English,Chrome,Windows,768,1366,12.775266666666669,
25,default,block1,tony,projective,0.01,13260,acknowledge,18,acknowledge,C,[],54,Yes,Interesting,Female,English,Chrome,Windows,768,1366,12.775266666666669,
25,default,block1,josie,projective,0.49,26736,see,19,see,C,[],54,Yes,Interesting,Female,English,Chrome,Windows,768,1366,12.775266666666669,
25,default,block1,emma,projective,0.98,17675,be_annoyed,20,be_annoyed,C,[],54,Yes,Interesting,Female,English,Chrome,Windows,768,1366,12.775266666666669,
25,default,block1,jon,projective,0.03,11826,confess,21,confess,C,[],54,Yes,Interesting,Female,English,Chrome,Windows,768,1366,12.775266666666669,
25,default,block1,jayden,projective,0.02,21380,pretend,22,pretend,C,[],54,Yes,Interesting,Female,English,Chrome,Windows,768,1366,12.775266666666669,
25,default,block1,josh,projective,0.02,13875,say,23,say,C,[],54,Yes,Interesting,Female,English,Chrome,Windows,768,1366,12.775266666666669,
25,default,block1,grace,projective,0.99,12043,know,24,know,C,[],54,Yes,Interesting,Female,English,Chrome,Windows,768,1366,12.775266666666669,
25,default,block1,hat,projective,0.98,8521,MC,25,MC,MC,[],54,Yes,Interesting,Female,English,Chrome,Windows,768,1366,12.775266666666669,
25,default,block1,julian,projective,0.01,9629,prove,26,prove,C,[],54,Yes,Interesting,Female,English,Chrome,Windows,768,1366,12.775266666666669,
25,default,block1,sophia,projective,0.02,11174,be_right,27,be_right,C,[],54,Yes,Interesting,Female,English,Chrome,Windows,768,1366,12.775266666666669,
25,default,block1,danny,projective,0.98,10561,discover,28,discover,C,[],54,Yes,Interesting,Female,English,Chrome,Windows,768,1366,12.775266666666669,
25,default,block1,mia,projective,0.01,9411,suggest,29,suggest,C,[],54,Yes,Interesting,Female,English,Chrome,Windows,768,1366,12.775266666666669,
25,default,block1,frank,projective,0.02,9937,demonstrate,30,demonstrate,C,[],54,Yes,Interesting,Female,English,Chrome,Windows,768,1366,12.775266666666669,
25,default,block2,julian,ai,0.01,17668,prove,32,prove,C,[],54,Yes,Interesting,Female,English,Chrome,Windows,768,1366,12.775266666666669,
25,default,block2,jackson,ai,0,17436,hear,33,hear,C,[],54,Yes,Interesting,Female,English,Chrome,Windows,768,1366,12.775266666666669,
25,default,block2,isabella,ai,0.02,19616,think,34,think,C,[],54,Yes,Interesting,Female,English,Chrome,Windows,768,1366,12.775266666666669,
25,default,block2,emily,ai,0.01,12653,establish,35,establish,C,[],54,Yes,Interesting,Female,English,Chrome,Windows,768,1366,12.775266666666669,
25,default,block2,owen,ai,0.02,15258,confirm,36,confirm,C,[],54,Yes,Interesting,Female,English,Chrome,Windows,768,1366,12.775266666666669,
25,default,block2,zoe,ai,0.01,14268,inform,37,inform,C,[],54,Yes,Interesting,Female,English,Chrome,Windows,768,1366,12.775266666666669,
25,default,block2,mary,ai,0.01,15297,announce,38,announce,C,[],54,Yes,Interesting,Female,English,Chrome,Windows,768,1366,12.775266666666669,
25,default,block2,pizza,ai,0.98,7376,MC,39,MC,MC,[],54,Yes,Interesting,Female,English,Chrome,Windows,768,1366,12.775266666666669,
25,default,block2,jayden,ai,0.01,7496,pretend,40,pretend,C,[],54,Yes,Interesting,Female,English,Chrome,Windows,768,1366,12.775266666666669,
25,default,block2,kids,ai,0.97,7324,MC,41,MC,MC,[],54,Yes,Interesting,Female,English,Chrome,Windows,768,1366,12.775266666666669,
25,default,block2,olivia,ai,0.01,5675,reveal,42,reveal,C,[],54,Yes,Interesting,Female,English,Chrome,Windows,768,1366,12.775266666666669,
25,default,block2,josie,ai,0.02,6414,see,43,see,C,[],54,Yes,Interesting,Female,English,Chrome,Windows,768,1366,12.775266666666669,
25,default,block2,jon,ai,0.01,6186,confess,44,confess,C,[],54,Yes,Interesting,Female,English,Chrome,Windows,768,1366,12.775266666666669,
25,default,block2,charley,ai,0.02,8136,admit,45,admit,C,[],54,Yes,Interesting,Female,English,Chrome,Windows,768,1366,12.775266666666669,
25,default,block2,tony,ai,0.02,7210,acknowledge,46,acknowledge,C,[],54,Yes,Interesting,Female,English,Chrome,Windows,768,1366,12.775266666666669,
25,default,block2,garage,ai,0.99,7957,MC,47,MC,MC,[],54,Yes,Interesting,Female,English,Chrome,Windows,768,1366,12.775266666666669,
25,default,block2,sophia,ai,0.01,6999,be_right,48,be_right,C,[],54,Yes,Interesting,Female,English,Chrome,Windows,768,1366,12.775266666666669,
25,default,block2,emma,ai,0.02,7859,be_annoyed,49,be_annoyed,C,[],54,Yes,Interesting,Female,English,Chrome,Windows,768,1366,12.775266666666669,
25,default,block2,hat,ai,0.98,5494,MC,50,MC,MC,[],54,Yes,Interesting,Female,English,Chrome,Windows,768,1366,12.775266666666669,
25,default,block2,ballet,ai,0.97,6564,MC,51,MC,MC,[],54,Yes,Interesting,Female,English,Chrome,Windows,768,1366,12.775266666666669,
25,default,block2,muffins,ai,0.98,5177,MC,52,MC,MC,[],54,Yes,Interesting,Female,English,Chrome,Windows,768,1366,12.775266666666669,
25,default,block2,josh,ai,0.01,7237,say,53,say,C,[],54,Yes,Interesting,Female,English,Chrome,Windows,768,1366,12.775266666666669,
25,default,block2,mia,ai,0.01,9295,suggest,54,suggest,C,[],54,Yes,Interesting,Female,English,Chrome,Windows,768,1366,12.775266666666669,
25,default,block2,frank,ai,0.01,6879,demonstrate,55,demonstrate,C,[],54,Yes,Interesting,Female,English,Chrome,Windows,768,1366,12.775266666666669,
25,default,block2,danny,ai,0,9204,discover,56,discover,C,[],54,Yes,Interesting,Female,English,Chrome,Windows,768,1366,12.775266666666669,
25,default,block2,grace,ai,0.02,6741,know,57,know,C,[],54,Yes,Interesting,Female,English,Chrome,Windows,768,1366,12.775266666666669,
20,default,block1,josie,ai,0.63,21601,prove,5,prove,C,[],21,Yes,n/a,Female,English,Chrome,Mac,900,1440,7.901183333333333,
20,default,block1,zoe,ai,0.26,28848,inform,6,inform,C,[],21,Yes,n/a,Female,English,Chrome,Mac,900,1440,7.901183333333333,
20,default,block1,jon,ai,0.3,11252,discover,7,discover,C,[],21,Yes,n/a,Female,English,Chrome,Mac,900,1440,7.901183333333333,
20,default,block1,tony,ai,0.97,9003,pretend,8,pretend,C,[],21,Yes,n/a,Female,English,Chrome,Mac,900,1440,7.901183333333333,
20,default,block1,jayden,ai,0.71,11353,say,9,say,C,[],21,Yes,n/a,Female,English,Chrome,Mac,900,1440,7.901183333333333,
20,default,block1,charley,ai,0.75,6748,demonstrate,10,demonstrate,C,[],21,Yes,n/a,Female,English,Chrome,Mac,900,1440,7.901183333333333,
20,default,block1,frank,ai,0.68,11646,know,11,know,C,[],21,Yes,n/a,Female,English,Chrome,Mac,900,1440,7.901183333333333,
20,default,block1,isabella,ai,0.72,11860,admit,12,admit,C,[],21,Yes,n/a,Female,English,Chrome,Mac,900,1440,7.901183333333333,
20,default,block1,kids,ai,0.98,5829,MC,13,MC,MC,[],21,Yes,n/a,Female,English,Chrome,Mac,900,1440,7.901183333333333,
20,default,block1,julian,ai,0.69,6091,acknowledge,14,acknowledge,C,[],21,Yes,n/a,Female,English,Chrome,Mac,900,1440,7.901183333333333,
20,default,block1,ballet,ai,0.98,3234,MC,15,MC,MC,[],21,Yes,n/a,Female,English,Chrome,Mac,900,1440,7.901183333333333,
20,default,block1,josh,ai,0.53,10089,announce,16,announce,C,[],21,Yes,n/a,Female,English,Chrome,Mac,900,1440,7.901183333333333,
20,default,block1,garage,ai,0.97,3829,MC,17,MC,MC,[],21,Yes,n/a,Female,English,Chrome,Mac,900,1440,7.901183333333333,
20,default,block1,mary,ai,0.51,6271,confirm,18,confirm,C,[],21,Yes,n/a,Female,English,Chrome,Mac,900,1440,7.901183333333333,
20,default,block1,hat,ai,0.96,3340,MC,19,MC,MC,[],21,Yes,n/a,Female,English,Chrome,Mac,900,1440,7.901183333333333,
20,default,block1,pizza,ai,0.98,3919,MC,20,MC,MC,[],21,Yes,n/a,Female,English,Chrome,Mac,900,1440,7.901183333333333,
20,default,block1,emma,ai,0.49,7412,establish,21,establish,C,[],21,Yes,n/a,Female,English,Chrome,Mac,900,1440,7.901183333333333,
20,default,block1,olivia,ai,0.5,6776,be_annoyed,22,be_annoyed,C,[],21,Yes,n/a,Female,English,Chrome,Mac,900,1440,7.901183333333333,
20,default,block1,owen,ai,0.34,7666,think,23,think,C,[],21,Yes,n/a,Female,English,Chrome,Mac,900,1440,7.901183333333333,
20,default,block1,emily,ai,0.29,10725,suggest,24,suggest,C,[],21,Yes,n/a,Female,English,Chrome,Mac,900,1440,7.901183333333333,
20,default,block1,grace,ai,0.97,7740,be_right,25,be_right,C,[],21,Yes,n/a,Female,English,Chrome,Mac,900,1440,7.901183333333333,
20,default,block1,sophia,ai,0.71,5982,reveal,26,reveal,C,[],21,Yes,n/a,Female,English,Chrome,Mac,900,1440,7.901183333333333,
20,default,block1,danny,ai,0.48,8577,confess,27,confess,C,[],21,Yes,n/a,Female,English,Chrome,Mac,900,1440,7.901183333333333,
20,default,block1,mia,ai,0.36,9995,hear,28,hear,C,[],21,Yes,n/a,Female,English,Chrome,Mac,900,1440,7.901183333333333,
20,default,block1,jackson,ai,0.26,6519,see,29,see,C,[],21,Yes,n/a,Female,English,Chrome,Mac,900,1440,7.901183333333333,
20,default,block1,muffins,ai,0.97,3755,MC,30,MC,MC,[],21,Yes,n/a,Female,English,Chrome,Mac,900,1440,7.901183333333333,
20,default,block2,jayden,projective,0.97,7972,say,32,say,C,[],21,Yes,n/a,Female,English,Chrome,Mac,900,1440,7.901183333333333,
20,default,block2,garage,projective,0.97,3984,MC,33,MC,MC,[],21,Yes,n/a,Female,English,Chrome,Mac,900,1440,7.901183333333333,
20,default,block2,sophia,projective,0.96,6596,reveal,34,reveal,C,[],21,Yes,n/a,Female,English,Chrome,Mac,900,1440,7.901183333333333,
20,default,block2,muffins,projective,0.98,4422,MC,35,MC,MC,[],21,Yes,n/a,Female,English,Chrome,Mac,900,1440,7.901183333333333,
20,default,block2,danny,projective,0.71,5701,confess,36,confess,C,[],21,Yes,n/a,Female,English,Chrome,Mac,900,1440,7.901183333333333,
20,default,block2,josie,projective,0.29,9041,prove,37,prove,C,[],21,Yes,n/a,Female,English,Chrome,Mac,900,1440,7.901183333333333,
20,default,block2,ballet,projective,0.97,3104,MC,38,MC,MC,[],21,Yes,n/a,Female,English,Chrome,Mac,900,1440,7.901183333333333,
20,default,block2,mary,projective,0.29,6320,confirm,39,confirm,C,[],21,Yes,n/a,Female,English,Chrome,Mac,900,1440,7.901183333333333,
20,default,block2,pizza,projective,0.97,3331,MC,40,MC,MC,[],21,Yes,n/a,Female,English,Chrome,Mac,900,1440,7.901183333333333,
20,default,block2,tony,projective,0.27,8219,pretend,41,pretend,C,[],21,Yes,n/a,Female,English,Chrome,Mac,900,1440,7.901183333333333,
20,default,block2,isabella,projective,0.84,9333,admit,42,admit,C,[],21,Yes,n/a,Female,English,Chrome,Mac,900,1440,7.901183333333333,
20,default,block2,charley,projective,0.52,6548,demonstrate,43,demonstrate,C,[],21,Yes,n/a,Female,English,Chrome,Mac,900,1440,7.901183333333333,
20,default,block2,frank,projective,0.96,4105,know,44,know,C,[],21,Yes,n/a,Female,English,Chrome,Mac,900,1440,7.901183333333333,
20,default,block2,emma,projective,0.31,5912,establish,45,establish,C,[],21,Yes,n/a,Female,English,Chrome,Mac,900,1440,7.901183333333333,
20,default,block2,mia,projective,0.96,5398,hear,46,hear,C,[],21,Yes,n/a,Female,English,Chrome,Mac,900,1440,7.901183333333333,
20,default,block2,owen,projective,0.27,4812,think,47,think,C,[],21,Yes,n/a,Female,English,Chrome,Mac,900,1440,7.901183333333333,
20,default,block2,jackson,projective,0.97,6278,see,48,see,C,[],21,Yes,n/a,Female,English,Chrome,Mac,900,1440,7.901183333333333,
20,default,block2,hat,projective,0.98,2842,MC,49,MC,MC,[],21,Yes,n/a,Female,English,Chrome,Mac,900,1440,7.901183333333333,
20,default,block2,olivia,projective,0.68,7838,be_annoyed,50,be_annoyed,C,[],21,Yes,n/a,Female,English,Chrome,Mac,900,1440,7.901183333333333,
20,default,block2,julian,projective,0.83,5774,acknowledge,51,acknowledge,C,[],21,Yes,n/a,Female,English,Chrome,Mac,900,1440,7.901183333333333,
20,default,block2,josh,projective,0.52,5143,announce,52,announce,C,[],21,Yes,n/a,Female,English,Chrome,Mac,900,1440,7.901183333333333,
20,default,block2,emily,projective,0.25,5274,suggest,53,suggest,C,[],21,Yes,n/a,Female,English,Chrome,Mac,900,1440,7.901183333333333,
20,default,block2,zoe,projective,0.74,9543,inform,54,inform,C,[],21,Yes,n/a,Female,English,Chrome,Mac,900,1440,7.901183333333333,
20,default,block2,grace,projective,0.18,7588,be_right,55,be_right,C,[],21,Yes,n/a,Female,English,Chrome,Mac,900,1440,7.901183333333333,
20,default,block2,jon,projective,0.77,7086,discover,56,discover,C,[],21,Yes,n/a,Female,English,Chrome,Mac,900,1440,7.901183333333333,
20,default,block2,kids,projective,0.96,3878,MC,57,MC,MC,[],21,Yes,n/a,Female,English,Chrome,Mac,900,1440,7.901183333333333,
27,default,block1,jon,projective,0.44,8303,pretend,5,pretend,C,[],28,Yes,,Female,english,Chrome,Windows,1050,1680,28.4615,
27,default,block1,jackson,projective,0,3736,discover,6,discover,C,[],28,Yes,,Female,english,Chrome,Windows,1050,1680,28.4615,
27,default,block1,isabella,projective,0.45,5936,acknowledge,7,acknowledge,C,[],28,Yes,,Female,english,Chrome,Windows,1050,1680,28.4615,
27,default,block1,muffins,projective,1,3144,MC,8,MC,MC,[],28,Yes,,Female,english,Chrome,Windows,1050,1680,28.4615,
27,default,block1,emily,projective,0.49,3032,demonstrate,9,demonstrate,C,[],28,Yes,,Female,english,Chrome,Windows,1050,1680,28.4615,
27,default,block1,danny,projective,0,3072,see,10,see,C,[],28,Yes,,Female,english,Chrome,Windows,1050,1680,28.4615,
27,default,block1,grace,projective,0.12,9552,reveal,11,reveal,C,[],28,Yes,,Female,english,Chrome,Windows,1050,1680,28.4615,
27,default,block1,mary,projective,0.24,5744,be_right,12,be_right,C,[],28,Yes,,Female,english,Chrome,Windows,1050,1680,28.4615,
27,default,block1,hat,projective,0.99,4136,MC,13,MC,MC,[],28,Yes,,Female,english,Chrome,Windows,1050,1680,28.4615,
27,default,block1,josie,projective,0.44,6632,think,14,think,C,[],28,Yes,,Female,english,Chrome,Windows,1050,1680,28.4615,
27,default,block1,olivia,projective,0.12,5008,prove,15,prove,C,[],28,Yes,,Female,english,Chrome,Windows,1050,1680,28.4615,
27,default,block1,kids,projective,0.91,80864,MC,16,MC,MC,[],28,Yes,,Female,english,Chrome,Windows,1050,1680,28.4615,
27,default,block1,josh,projective,0.47,4088,inform,17,inform,C,[],28,Yes,,Female,english,Chrome,Windows,1050,1680,28.4615,
27,default,block1,sophia,projective,0.15,2959,confirm,18,confirm,C,[],28,Yes,,Female,english,Chrome,Windows,1050,1680,28.4615,
27,default,block1,jayden,projective,0.09,3048,say,19,say,C,[],28,Yes,,Female,english,Chrome,Windows,1050,1680,28.4615,
27,default,block1,frank,projective,0.08,2639,establish,20,establish,C,[],28,Yes,,Female,english,Chrome,Windows,1050,1680,28.4615,
27,default,block1,emma,projective,0.16,37448,announce,21,announce,C,[],28,Yes,,Female,english,Chrome,Windows,1050,1680,28.4615,
27,default,block1,mia,projective,0.06,4280,suggest,22,suggest,C,[],28,Yes,,Female,english,Chrome,Windows,1050,1680,28.4615,
27,default,block1,pizza,projective,1,2792,MC,23,MC,MC,[],28,Yes,,Female,english,Chrome,Windows,1050,1680,28.4615,
27,default,block1,charley,projective,0.47,5560,admit,24,admit,C,[],28,Yes,,Female,english,Chrome,Windows,1050,1680,28.4615,
27,default,block1,tony,projective,0.1,2840,hear,25,hear,C,[],28,Yes,,Female,english,Chrome,Windows,1050,1680,28.4615,
27,default,block1,owen,projective,0.94,3824,know,26,know,C,[],28,Yes,,Female,english,Chrome,Windows,1050,1680,28.4615,
27,default,block1,garage,projective,1,3112,MC,27,MC,MC,[],28,Yes,,Female,english,Chrome,Windows,1050,1680,28.4615,
27,default,block1,zoe,projective,0.22,3448,confess,28,confess,C,[],28,Yes,,Female,english,Chrome,Windows,1050,1680,28.4615,
27,default,block1,julian,projective,0.83,16192,be_annoyed,29,be_annoyed,C,[],28,Yes,,Female,english,Chrome,Windows,1050,1680,28.4615,
27,default,block1,ballet,projective,0.98,2120,MC,30,MC,MC,[],28,Yes,,Female,english,Chrome,Windows,1050,1680,28.4615,
27,default,block2,hat,ai,1,4200,MC,32,MC,MC,[],28,Yes,,Female,english,Chrome,Windows,1050,1680,28.4615,
27,default,block2,jackson,ai,1,2320,discover,33,discover,C,[],28,Yes,,Female,english,Chrome,Windows,1050,1680,28.4615,
27,default,block2,muffins,ai,1,4008,MC,34,MC,MC,[],28,Yes,,Female,english,Chrome,Windows,1050,1680,28.4615,
27,default,block2,frank,ai,0.53,7016,establish,35,establish,C,[],28,Yes,,Female,english,Chrome,Windows,1050,1680,28.4615,
27,default,block2,charley,ai,0.12,8608,admit,36,admit,C,[],28,Yes,,Female,english,Chrome,Windows,1050,1680,28.4615,
27,default,block2,tony,ai,0,4520,hear,37,hear,C,[],28,Yes,,Female,english,Chrome,Windows,1050,1680,28.4615,
27,default,block2,danny,ai,0,5776,see,38,see,C,[],28,Yes,,Female,english,Chrome,Windows,1050,1680,28.4615,
27,default,block2,pizza,ai,1,1959,MC,39,MC,MC,[],28,Yes,,Female,english,Chrome,Windows,1050,1680,28.4615,
27,default,block2,sophia,ai,0.22,4744,confirm,40,confirm,C,[],28,Yes,,Female,english,Chrome,Windows,1050,1680,28.4615,
27,default,block2,emily,ai,0.3,3192,demonstrate,41,demonstrate,C,[],28,Yes,,Female,english,Chrome,Windows,1050,1680,28.4615,
27,default,block2,emma,ai,0.1,4776,announce,42,announce,C,[],28,Yes,,Female,english,Chrome,Windows,1050,1680,28.4615,
27,default,block2,jayden,ai,0.54,4336,say,43,say,C,[],28,Yes,,Female,english,Chrome,Windows,1050,1680,28.4615,
27,default,block2,kids,ai,1,2408,MC,44,MC,MC,[],28,Yes,,Female,english,Chrome,Windows,1050,1680,28.4615,
27,default,block2,jon,ai,0.38,5560,pretend,45,pretend,C,[],28,Yes,,Female,english,Chrome,Windows,1050,1680,28.4615,
27,default,block2,garage,ai,1,3272,MC,46,MC,MC,[],28,Yes,,Female,english,Chrome,Windows,1050,1680,28.4615,
27,default,block2,mia,ai,0.4,13848,suggest,47,suggest,C,[],28,Yes,,Female,english,Chrome,Windows,1050,1680,28.4615,
27,default,block2,grace,ai,0.05,3407,reveal,48,reveal,C,[],28,Yes,,Female,english,Chrome,Windows,1050,1680,28.4615,
27,default,block2,olivia,ai,0.07,2616,prove,49,prove,C,[],28,Yes,,Female,english,Chrome,Windows,1050,1680,28.4615,
27,default,block2,josie,ai,0.27,5176,think,50,think,C,[],28,Yes,,Female,english,Chrome,Windows,1050,1680,28.4615,
27,default,block2,owen,ai,1,2999,know,51,know,C,[],28,Yes,,Female,english,Chrome,Windows,1050,1680,28.4615,
27,default,block2,josh,ai,0.42,4384,inform,52,inform,C,[],28,Yes,,Female,english,Chrome,Windows,1050,1680,28.4615,
27,default,block2,mary,ai,0.31,3040,be_right,53,be_right,C,[],28,Yes,,Female,english,Chrome,Windows,1050,1680,28.4615,
27,default,block2,ballet,ai,1,2400,MC,54,MC,MC,[],28,Yes,,Female,english,Chrome,Windows,1050,1680,28.4615,
27,default,block2,zoe,ai,0.21,3560,confess,55,confess,C,[],28,Yes,,Female,english,Chrome,Windows,1050,1680,28.4615,
27,default,block2,julian,ai,0.01,4511,be_annoyed,56,be_annoyed,C,[],28,Yes,,Female,english,Chrome,Windows,1050,1680,28.4615,
27,default,block2,isabella,ai,0.1,3896,acknowledge,57,acknowledge,C,[],28,Yes,,Female,english,Chrome,Windows,1050,1680,28.4615,
26,default,block1,zoe,projective,0,17278,confirm,5,confirm,C,[],29,Yes,,Male,English,Chrome,Windows,1080,1920,8.50155,
26,default,block1,kids,projective,1,9157,MC,6,MC,MC,[],29,Yes,,Male,English,Chrome,Windows,1080,1920,8.50155,
26,default,block1,tony,projective,0.73,13709,discover,7,discover,C,[],29,Yes,,Male,English,Chrome,Windows,1080,1920,8.50155,
26,default,block1,jayden,projective,0.86,6816,see,8,see,C,[],29,Yes,,Male,English,Chrome,Windows,1080,1920,8.50155,
26,default,block1,isabella,projective,1,9036,demonstrate,9,demonstrate,C,[],29,Yes,,Male,English,Chrome,Windows,1080,1920,8.50155,
26,default,block1,josie,projective,0,12308,be_right,10,be_right,C,[],29,Yes,,Male,English,Chrome,Windows,1080,1920,8.50155,
26,default,block1,hat,projective,1,5138,MC,11,MC,MC,[],29,Yes,,Male,English,Chrome,Windows,1080,1920,8.50155,
26,default,block1,josh,projective,0.64,14589,suggest,12,suggest,C,[],29,Yes,,Male,English,Chrome,Windows,1080,1920,8.50155,
26,default,block1,garage,projective,1,8892,MC,13,MC,MC,[],29,Yes,,Male,English,Chrome,Windows,1080,1920,8.50155,
26,default,block1,sophia,projective,0.97,7428,admit,14,admit,C,[],29,Yes,,Male,English,Chrome,Windows,1080,1920,8.50155,
26,default,block1,olivia,projective,0.21,10725,think,15,think,C,[],29,Yes,,Male,English,Chrome,Windows,1080,1920,8.50155,
26,default,block1,muffins,projective,1,4981,MC,16,MC,MC,[],29,Yes,,Male,English,Chrome,Windows,1080,1920,8.50155,
26,default,block1,ballet,projective,1,3450,MC,17,MC,MC,[],29,Yes,,Male,English,Chrome,Windows,1080,1920,8.50155,
26,default,block1,danny,projective,0.69,7872,acknowledge,18,acknowledge,C,[],29,Yes,,Male,English,Chrome,Windows,1080,1920,8.50155,
26,default,block1,jackson,projective,0.86,7651,hear,19,hear,C,[],29,Yes,,Male,English,Chrome,Windows,1080,1920,8.50155,
26,default,block1,emma,projective,0.4,11100,confess,20,confess,C,[],29,Yes,,Male,English,Chrome,Windows,1080,1920,8.50155,
26,default,block1,mary,projective,0.72,7459,inform,21,inform,C,[],29,Yes,,Male,English,Chrome,Windows,1080,1920,8.50155,
26,default,block1,grace,projective,0.29,8341,announce,22,announce,C,[],29,Yes,,Male,English,Chrome,Windows,1080,1920,8.50155,
26,default,block1,owen,projective,0.27,11875,say,23,say,C,[],29,Yes,,Male,English,Chrome,Windows,1080,1920,8.50155,
26,default,block1,julian,projective,0.35,7300,establish,24,establish,C,[],29,Yes,,Male,English,Chrome,Windows,1080,1920,8.50155,
26,default,block1,emily,projective,1,8145,be_annoyed,25,be_annoyed,C,[],29,Yes,,Male,English,Chrome,Windows,1080,1920,8.50155,
26,default,block1,frank,projective,0.72,11436,reveal,26,reveal,C,[],29,Yes,,Male,English,Chrome,Windows,1080,1920,8.50155,
26,default,block1,jon,projective,0.96,8090,know,27,know,C,[],29,Yes,,Male,English,Chrome,Windows,1080,1920,8.50155,
26,default,block1,charley,projective,0.21,8376,prove,28,prove,C,[],29,Yes,,Male,English,Chrome,Windows,1080,1920,8.50155,
26,default,block1,pizza,projective,1,4477,MC,29,MC,MC,[],29,Yes,,Male,English,Chrome,Windows,1080,1920,8.50155,
26,default,block1,mia,projective,0.36,9574,pretend,30,pretend,C,[],29,Yes,,Male,English,Chrome,Windows,1080,1920,8.50155,
26,default,block2,danny,ai,1,8823,acknowledge,32,acknowledge,C,[],29,Yes,,Male,English,Chrome,Windows,1080,1920,8.50155,
26,default,block2,emma,ai,0.71,10047,confess,33,confess,C,[],29,Yes,,Male,English,Chrome,Windows,1080,1920,8.50155,
26,default,block2,emily,ai,0.17,7108,be_annoyed,34,be_annoyed,C,[],29,Yes,,Male,English,Chrome,Windows,1080,1920,8.50155,
26,default,block2,hat,ai,1,3271,MC,35,MC,MC,[],29,Yes,,Male,English,Chrome,Windows,1080,1920,8.50155,
26,default,block2,mary,ai,0.25,9915,inform,36,inform,C,[],29,Yes,,Male,English,Chrome,Windows,1080,1920,8.50155,
26,default,block2,julian,ai,0.88,9184,establish,37,establish,C,[],29,Yes,,Male,English,Chrome,Windows,1080,1920,8.50155,
26,default,block2,tony,ai,0.15,8115,discover,38,discover,C,[],29,Yes,,Male,English,Chrome,Windows,1080,1920,8.50155,
26,default,block2,kids,ai,1,4376,MC,39,MC,MC,[],29,Yes,,Male,English,Chrome,Windows,1080,1920,8.50155,
26,default,block2,mia,ai,0.36,7795,pretend,40,pretend,C,[],29,Yes,,Male,English,Chrome,Windows,1080,1920,8.50155,
26,default,block2,olivia,ai,0.76,8573,think,41,think,C,[],29,Yes,,Male,English,Chrome,Windows,1080,1920,8.50155,
26,default,block2,jayden,ai,0.16,5450,see,42,see,C,[],29,Yes,,Male,English,Chrome,Windows,1080,1920,8.50155,
26,default,block2,jackson,ai,0.08,7432,hear,43,hear,C,[],29,Yes,,Male,English,Chrome,Windows,1080,1920,8.50155,
26,default,block2,isabella,ai,0.6,11260,demonstrate,44,demonstrate,C,[],29,Yes,,Male,English,Chrome,Windows,1080,1920,8.50155,
26,default,block2,josh,ai,0.66,24688,suggest,45,suggest,C,[],29,Yes,,Male,English,Chrome,Windows,1080,1920,8.50155,
26,default,block2,muffins,ai,1,3457,MC,46,MC,MC,[],29,Yes,,Male,English,Chrome,Windows,1080,1920,8.50155,
26,default,block2,sophia,ai,1,12663,admit,47,admit,C,[],29,Yes,,Male,English,Chrome,Windows,1080,1920,8.50155,
26,default,block2,josie,ai,0.99,12586,be_right,48,be_right,C,[],29,Yes,,Male,English,Chrome,Windows,1080,1920,8.50155,
26,default,block2,grace,ai,0.55,11875,announce,49,announce,C,[],29,Yes,,Male,English,Chrome,Windows,1080,1920,8.50155,
26,default,block2,garage,ai,1,3283,MC,50,MC,MC,[],29,Yes,,Male,English,Chrome,Windows,1080,1920,8.50155,
26,default,block2,zoe,ai,0.73,8157,confirm,51,confirm,C,[],29,Yes,,Male,English,Chrome,Windows,1080,1920,8.50155,
26,default,block2,pizza,ai,1,2960,MC,52,MC,MC,[],29,Yes,,Male,English,Chrome,Windows,1080,1920,8.50155,
26,default,block2,owen,ai,0.75,6435,say,53,say,C,[],29,Yes,,Male,English,Chrome,Windows,1080,1920,8.50155,
26,default,block2,jon,ai,0.7,9698,know,54,know,C,[],29,Yes,,Male,English,Chrome,Windows,1080,1920,8.50155,
26,default,block2,charley,ai,0.77,5298,prove,55,prove,C,[],29,Yes,,Male,English,Chrome,Windows,1080,1920,8.50155,
26,default,block2,ballet,ai,1,3072,MC,56,MC,MC,[],29,Yes,,Male,English,Chrome,Windows,1080,1920,8.50155,
26,default,block2,frank,ai,0.71,7916,reveal,57,reveal,C,[],29,Yes,,Male,English,Chrome,Windows,1080,1920,8.50155,
21,default,block1,zoe,ai,0.44,30543,think,5,think,C,[],20,Yes,,Male,English,Firefox,Mac,1080,1920,10.733133333333331,
21,default,block1,mary,ai,0.1,7783,know,6,know,C,[],20,Yes,,Male,English,Firefox,Mac,1080,1920,10.733133333333331,
21,default,block1,ballet,ai,0.98,5402,MC,7,MC,MC,[],20,Yes,,Male,English,Firefox,Mac,1080,1920,10.733133333333331,
21,default,block1,julian,ai,0,6435,discover,8,discover,C,[],20,Yes,,Male,English,Firefox,Mac,1080,1920,10.733133333333331,
21,default,block1,jackson,ai,0.02,3903,suggest,9,suggest,C,[],20,Yes,,Male,English,Firefox,Mac,1080,1920,10.733133333333331,
21,default,block1,frank,ai,0.01,4996,reveal,10,reveal,C,[],20,Yes,,Male,English,Firefox,Mac,1080,1920,10.733133333333331,
21,default,block1,kids,ai,0.98,30138,MC,11,MC,MC,[],20,Yes,,Male,English,Firefox,Mac,1080,1920,10.733133333333331,
21,default,block1,hat,ai,0.99,3115,MC,12,MC,MC,[],20,Yes,,Male,English,Firefox,Mac,1080,1920,10.733133333333331,
21,default,block1,jayden,ai,0.03,5366,inform,13,inform,C,[],20,Yes,,Male,English,Firefox,Mac,1080,1920,10.733133333333331,
21,default,block1,charley,ai,0.02,6943,demonstrate,14,demonstrate,C,[],20,Yes,,Male,English,Firefox,Mac,1080,1920,10.733133333333331,
21,default,block1,emily,ai,0.38,8032,say,15,say,C,[],20,Yes,,Male,English,Firefox,Mac,1080,1920,10.733133333333331,
21,default,block1,mia,ai,0.48,12295,be_right,16,be_right,C,[],20,Yes,,Male,English,Firefox,Mac,1080,1920,10.733133333333331,
21,default,block1,pizza,ai,0.98,4049,MC,17,MC,MC,[],20,Yes,,Male,English,Firefox,Mac,1080,1920,10.733133333333331,
21,default,block1,josie,ai,0.01,6087,pretend,18,pretend,C,[],20,Yes,,Male,English,Firefox,Mac,1080,1920,10.733133333333331,
21,default,block1,olivia,ai,0.02,7010,announce,19,announce,C,[],20,Yes,,Male,English,Firefox,Mac,1080,1920,10.733133333333331,
21,default,block1,jon,ai,0.01,6052,prove,20,prove,C,[],20,Yes,,Male,English,Firefox,Mac,1080,1920,10.733133333333331,
21,default,block1,tony,ai,0.03,5929,be_annoyed,21,be_annoyed,C,[],20,Yes,,Male,English,Firefox,Mac,1080,1920,10.733133333333331,
21,default,block1,muffins,ai,0.97,6131,MC,22,MC,MC,[],20,Yes,,Male,English,Firefox,Mac,1080,1920,10.733133333333331,
21,default,block1,garage,ai,0.99,61357,MC,23,MC,MC,[],20,Yes,,Male,English,Firefox,Mac,1080,1920,10.733133333333331,
21,default,block1,sophia,ai,0.04,4060,see,24,see,C,[],20,Yes,,Male,English,Firefox,Mac,1080,1920,10.733133333333331,
21,default,block1,grace,ai,0.92,36227,establish,25,establish,C,[],20,Yes,,Male,English,Firefox,Mac,1080,1920,10.733133333333331,
21,default,block1,josh,ai,0.01,6569,hear,26,hear,C,[],20,Yes,,Male,English,Firefox,Mac,1080,1920,10.733133333333331,
21,default,block1,owen,ai,0,26191,acknowledge,27,acknowledge,C,[],20,Yes,,Male,English,Firefox,Mac,1080,1920,10.733133333333331,
21,default,block1,isabella,ai,0.06,3431,confirm,28,confirm,C,[],20,Yes,,Male,English,Firefox,Mac,1080,1920,10.733133333333331,
21,default,block1,emma,ai,0.03,4375,confess,29,confess,C,[],20,Yes,,Male,English,Firefox,Mac,1080,1920,10.733133333333331,
21,default,block1,danny,ai,0.02,46913,admit,30,admit,C,[],20,Yes,,Male,English,Firefox,Mac,1080,1920,10.733133333333331,
21,default,block2,jon,projective,0.02,7907,prove,32,prove,C,[],20,Yes,,Male,English,Firefox,Mac,1080,1920,10.733133333333331,
21,default,block2,pizza,projective,0.98,3701,MC,33,MC,MC,[],20,Yes,,Male,English,Firefox,Mac,1080,1920,10.733133333333331,
21,default,block2,frank,projective,0.02,4950,reveal,34,reveal,C,[],20,Yes,,Male,English,Firefox,Mac,1080,1920,10.733133333333331,
21,default,block2,emily,projective,0,5827,say,35,say,C,[],20,Yes,,Male,English,Firefox,Mac,1080,1920,10.733133333333331,
21,default,block2,julian,projective,0.01,4522,discover,36,discover,C,[],20,Yes,,Male,English,Firefox,Mac,1080,1920,10.733133333333331,
21,default,block2,josie,projective,0.01,4726,pretend,37,pretend,C,[],20,Yes,,Male,English,Firefox,Mac,1080,1920,10.733133333333331,
21,default,block2,jackson,projective,0.02,4647,suggest,38,suggest,C,[],20,Yes,,Male,English,Firefox,Mac,1080,1920,10.733133333333331,
21,default,block2,garage,projective,1,7154,MC,39,MC,MC,[],20,Yes,,Male,English,Firefox,Mac,1080,1920,10.733133333333331,
21,default,block2,owen,projective,0.02,27721,acknowledge,40,acknowledge,C,[],20,Yes,,Male,English,Firefox,Mac,1080,1920,10.733133333333331,
21,default,block2,jayden,projective,0.02,6615,inform,41,inform,C,[],20,Yes,,Male,English,Firefox,Mac,1080,1920,10.733133333333331,
21,default,block2,olivia,projective,0.03,3150,announce,42,announce,C,[],20,Yes,,Male,English,Firefox,Mac,1080,1920,10.733133333333331,
21,default,block2,zoe,projective,0,3915,think,43,think,C,[],20,Yes,,Male,English,Firefox,Mac,1080,1920,10.733133333333331,
21,default,block2,isabella,projective,0,3746,confirm,44,confirm,C,[],20,Yes,,Male,English,Firefox,Mac,1080,1920,10.733133333333331,
21,default,block2,grace,projective,0.02,2340,establish,45,establish,C,[],20,Yes,,Male,English,Firefox,Mac,1080,1920,10.733133333333331,
21,default,block2,kids,projective,0.97,3544,MC,46,MC,MC,[],20,Yes,,Male,English,Firefox,Mac,1080,1920,10.733133333333331,
21,default,block2,ballet,projective,0.96,2306,MC,47,MC,MC,[],20,Yes,,Male,English,Firefox,Mac,1080,1920,10.733133333333331,
21,default,block2,muffins,projective,0.97,3387,MC,48,MC,MC,[],20,Yes,,Male,English,Firefox,Mac,1080,1920,10.733133333333331,
21,default,block2,emma,projective,0.02,18033,confess,49,confess,C,[],20,Yes,,Male,English,Firefox,Mac,1080,1920,10.733133333333331,
21,default,block2,mia,projective,0.03,35630,be_right,50,be_right,C,[],20,Yes,,Male,English,Firefox,Mac,1080,1920,10.733133333333331,
21,default,block2,hat,projective,0.97,2676,MC,51,MC,MC,[],20,Yes,,Male,English,Firefox,Mac,1080,1920,10.733133333333331,
21,default,block2,josh,projective,0.02,4421,hear,52,hear,C,[],20,Yes,,Male,English,Firefox,Mac,1080,1920,10.733133333333331,
21,default,block2,charley,projective,0,24513,demonstrate,53,demonstrate,C,[],20,Yes,,Male,English,Firefox,Mac,1080,1920,10.733133333333331,
21,default,block2,mary,projective,0.03,5816,know,54,know,C,[],20,Yes,,Male,English,Firefox,Mac,1080,1920,10.733133333333331,
21,default,block2,sophia,projective,0.99,10249,see,55,see,C,[],20,Yes,,Male,English,Firefox,Mac,1080,1920,10.733133333333331,
21,default,block2,tony,projective,0.98,4590,be_annoyed,56,be_annoyed,C,[],20,Yes,,Male,English,Firefox,Mac,1080,1920,10.733133333333331,
21,default,block2,danny,projective,0.96,7762,admit,57,admit,C,[],20,Yes,,Male,English,Firefox,Mac,1080,1920,10.733133333333331,
18,default,block1,mary,ai,0.07,12018,confess,5,confess,C,[],30,Yes,,Male,English,Firefox,Windows,1080,1920,6.518533333333333,
18,default,block1,jayden,ai,0.8,16930,pretend,6,pretend,C,[],30,Yes,,Male,English,Firefox,Windows,1080,1920,6.518533333333333,
18,default,block1,jackson,ai,0,5110,prove,7,prove,C,[],30,Yes,,Male,English,Firefox,Windows,1080,1920,6.518533333333333,
18,default,block1,sophia,ai,0.55,6733,acknowledge,8,acknowledge,C,[],30,Yes,,Male,English,Firefox,Windows,1080,1920,6.518533333333333,
18,default,block1,danny,ai,0,11170,be_right,9,be_right,C,[],30,Yes,,Male,English,Firefox,Windows,1080,1920,6.518533333333333,
18,default,block1,ballet,ai,1,8510,MC,10,MC,MC,[],30,Yes,,Male,English,Firefox,Windows,1080,1920,6.518533333333333,
18,default,block1,josh,ai,0.7,9880,think,11,think,C,[],30,Yes,,Male,English,Firefox,Windows,1080,1920,6.518533333333333,
18,default,block1,emily,ai,0.42,7215,say,12,say,C,[],30,Yes,,Male,English,Firefox,Windows,1080,1920,6.518533333333333,
18,default,block1,isabella,ai,0.45,5351,admit,13,admit,C,[],30,Yes,,Male,English,Firefox,Windows,1080,1920,6.518533333333333,
18,default,block1,jon,ai,0.63,6174,hear,14,hear,C,[],30,Yes,,Male,English,Firefox,Windows,1080,1920,6.518533333333333,
18,default,block1,emma,ai,0,8021,be_annoyed,15,be_annoyed,C,[],30,Yes,,Male,English,Firefox,Windows,1080,1920,6.518533333333333,
18,default,block1,pizza,ai,1,5141,MC,16,MC,MC,[],30,Yes,,Male,English,Firefox,Windows,1080,1920,6.518533333333333,
18,default,block1,josie,ai,0.89,6199,reveal,17,reveal,C,[],30,Yes,,Male,English,Firefox,Windows,1080,1920,6.518533333333333,
18,default,block1,zoe,ai,0,6258,discover,18,discover,C,[],30,Yes,,Male,English,Firefox,Windows,1080,1920,6.518533333333333,
18,default,block1,grace,ai,0.72,6553,know,19,know,C,[],30,Yes,,Male,English,Firefox,Windows,1080,1920,6.518533333333333,
18,default,block1,muffins,ai,1,4216,MC,20,MC,MC,[],30,Yes,,Male,English,Firefox,Windows,1080,1920,6.518533333333333,
18,default,block1,charley,ai,0,9643,demonstrate,21,demonstrate,C,[],30,Yes,,Male,English,Firefox,Windows,1080,1920,6.518533333333333,
18,default,block1,frank,ai,0.68,5894,establish,22,establish,C,[],30,Yes,,Male,English,Firefox,Windows,1080,1920,6.518533333333333,
18,default,block1,owen,ai,0.22,4780,confirm,23,confirm,C,[],30,Yes,,Male,English,Firefox,Windows,1080,1920,6.518533333333333,
18,default,block1,olivia,ai,0.5,7668,suggest,24,suggest,C,[],30,Yes,,Male,English,Firefox,Windows,1080,1920,6.518533333333333,
18,default,block1,julian,ai,0.54,11131,inform,25,inform,C,[],30,Yes,,Male,English,Firefox,Windows,1080,1920,6.518533333333333,
18,default,block1,hat,ai,1,3187,MC,26,MC,MC,[],30,Yes,,Male,English,Firefox,Windows,1080,1920,6.518533333333333,
18,default,block1,tony,ai,0.66,5628,announce,27,announce,C,[],30,Yes,,Male,English,Firefox,Windows,1080,1920,6.518533333333333,
18,default,block1,mia,ai,0.72,6161,see,28,see,C,[],30,Yes,,Male,English,Firefox,Windows,1080,1920,6.518533333333333,
18,default,block1,garage,ai,1,3603,MC,29,MC,MC,[],30,Yes,,Male,English,Firefox,Windows,1080,1920,6.518533333333333,
18,default,block1,kids,ai,1,3922,MC,30,MC,MC,[],30,Yes,,Male,English,Firefox,Windows,1080,1920,6.518533333333333,
18,default,block2,jayden,projective,0.88,14456,pretend,32,pretend,C,[],30,Yes,,Male,English,Firefox,Windows,1080,1920,6.518533333333333,
18,default,block2,julian,projective,0.84,7550,inform,33,inform,C,[],30,Yes,,Male,English,Firefox,Windows,1080,1920,6.518533333333333,
18,default,block2,kids,projective,1,4012,MC,34,MC,MC,[],30,Yes,,Male,English,Firefox,Windows,1080,1920,6.518533333333333,
18,default,block2,jon,projective,0.95,5671,hear,35,hear,C,[],30,Yes,,Male,English,Firefox,Windows,1080,1920,6.518533333333333,
18,default,block2,sophia,projective,1,4580,acknowledge,36,acknowledge,C,[],30,Yes,,Male,English,Firefox,Windows,1080,1920,6.518533333333333,
18,default,block2,charley,projective,0.21,5606,demonstrate,37,demonstrate,C,[],30,Yes,,Male,English,Firefox,Windows,1080,1920,6.518533333333333,
18,default,block2,olivia,projective,0,4633,suggest,38,suggest,C,[],30,Yes,,Male,English,Firefox,Windows,1080,1920,6.518533333333333,
18,default,block2,josh,projective,0.5,5382,think,39,think,C,[],30,Yes,,Male,English,Firefox,Windows,1080,1920,6.518533333333333,
18,default,block2,ballet,projective,1,2947,MC,40,MC,MC,[],30,Yes,,Male,English,Firefox,Windows,1080,1920,6.518533333333333,
18,default,block2,grace,projective,0.9,39637,know,41,know,C,[],30,Yes,,Male,English,Firefox,Windows,1080,1920,6.518533333333333,
18,default,block2,owen,projective,0,3662,confirm,42,confirm,C,[],30,Yes,,Male,English,Firefox,Windows,1080,1920,6.518533333333333,
18,default,block2,frank,projective,0.08,4972,establish,43,establish,C,[],30,Yes,,Male,English,Firefox,Windows,1080,1920,6.518533333333333,
18,default,block2,mary,projective,0.1,4515,confess,44,confess,C,[],30,Yes,,Male,English,Firefox,Windows,1080,1920,6.518533333333333,
18,default,block2,zoe,projective,0.75,3521,discover,45,discover,C,[],30,Yes,,Male,English,Firefox,Windows,1080,1920,6.518533333333333,
18,default,block2,jackson,projective,0,3639,prove,46,prove,C,[],30,Yes,,Male,English,Firefox,Windows,1080,1920,6.518533333333333,
18,default,block2,mia,projective,0.74,3042,see,47,see,C,[],30,Yes,,Male,English,Firefox,Windows,1080,1920,6.518533333333333,
18,default,block2,josie,projective,0.64,4690,reveal,48,reveal,C,[],30,Yes,,Male,English,Firefox,Windows,1080,1920,6.518533333333333,
18,default,block2,danny,projective,0,5534,be_right,49,be_right,C,[],30,Yes,,Male,English,Firefox,Windows,1080,1920,6.518533333333333,
18,default,block2,emily,projective,0,6954,say,50,say,C,[],30,Yes,,Male,English,Firefox,Windows,1080,1920,6.518533333333333,
18,default,block2,garage,projective,1,2579,MC,51,MC,MC,[],30,Yes,,Male,English,Firefox,Windows,1080,1920,6.518533333333333,
18,default,block2,muffins,projective,1,2518,MC,52,MC,MC,[],30,Yes,,Male,English,Firefox,Windows,1080,1920,6.518533333333333,
18,default,block2,emma,projective,0.84,6068,be_annoyed,53,be_annoyed,C,[],30,Yes,,Male,English,Firefox,Windows,1080,1920,6.518533333333333,
18,default,block2,hat,projective,1,2377,MC,54,MC,MC,[],30,Yes,,Male,English,Firefox,Windows,1080,1920,6.518533333333333,
18,default,block2,tony,projective,0.13,3679,announce,55,announce,C,[],30,Yes,,Male,English,Firefox,Windows,1080,1920,6.518533333333333,
18,default,block2,pizza,projective,1,2249,MC,56,MC,MC,[],30,Yes,,Male,English,Firefox,Windows,1080,1920,6.518533333333333,
18,default,block2,isabella,projective,0.91,3840,admit,57,admit,C,[],30,Yes,,Male,English,Firefox,Windows,1080,1920,6.518533333333333,
24,default,block1,grace,projective,0.13,17456,establish,5,establish,C,[],28,Yes,,Female,English,Chrome,Mac,1120,1792,14.480916666666667,
24,default,block1,frank,projective,0.8,27840,inform,6,inform,C,[],28,Yes,,Female,English,Chrome,Mac,1120,1792,14.480916666666667,
24,default,block1,tony,projective,0.51,26234,announce,7,announce,C,[],28,Yes,,Female,English,Chrome,Mac,1120,1792,14.480916666666667,
24,default,block1,jayden,projective,0.32,15227,confirm,8,confirm,C,[],28,Yes,,Female,English,Chrome,Mac,1120,1792,14.480916666666667,
24,default,block1,olivia,projective,0.22,10343,prove,9,prove,C,[],28,Yes,,Female,English,Chrome,Mac,1120,1792,14.480916666666667,
24,default,block1,mia,projective,0.51,18648,pretend,10,pretend,C,[],28,Yes,,Female,English,Chrome,Mac,1120,1792,14.480916666666667,
24,default,block1,mary,projective,0.32,19899,admit,11,admit,C,[],28,Yes,,Female,English,Chrome,Mac,1120,1792,14.480916666666667,
24,default,block1,danny,projective,0.13,11532,suggest,12,suggest,C,[],28,Yes,,Female,English,Chrome,Mac,1120,1792,14.480916666666667,
24,default,block1,garage,projective,0.91,13346,MC,13,MC,MC,[],28,Yes,,Female,English,Chrome,Mac,1120,1792,14.480916666666667,
24,default,block1,emily,projective,0.68,10824,hear,14,hear,C,[],28,Yes,,Female,English,Chrome,Mac,1120,1792,14.480916666666667,
24,default,block1,isabella,projective,0.91,9780,see,15,see,C,[],28,Yes,,Female,English,Chrome,Mac,1120,1792,14.480916666666667,
24,default,block1,muffins,projective,0.98,6872,MC,16,MC,MC,[],28,Yes,,Female,English,Chrome,Mac,1120,1792,14.480916666666667,
24,default,block1,josie,projective,0.83,9998,acknowledge,17,acknowledge,C,[],28,Yes,,Female,English,Chrome,Mac,1120,1792,14.480916666666667,
24,default,block1,zoe,projective,0.19,12947,say,18,say,C,[],28,Yes,,Female,English,Chrome,Mac,1120,1792,14.480916666666667,
24,default,block1,jackson,projective,0.76,11050,know,19,know,C,[],28,Yes,,Female,English,Chrome,Mac,1120,1792,14.480916666666667,
24,default,block1,julian,projective,0.4,16399,reveal,20,reveal,C,[],28,Yes,,Female,English,Chrome,Mac,1120,1792,14.480916666666667,
24,default,block1,hat,projective,0.97,7002,MC,21,MC,MC,[],28,Yes,,Female,English,Chrome,Mac,1120,1792,14.480916666666667,
24,default,block1,josh,projective,0.28,21526,think,22,think,C,[],28,Yes,,Female,English,Chrome,Mac,1120,1792,14.480916666666667,
24,default,block1,owen,projective,0.52,27311,confess,23,confess,C,[],28,Yes,,Female,English,Chrome,Mac,1120,1792,14.480916666666667,
24,default,block1,jon,projective,0.5,15133,demonstrate,24,demonstrate,C,[],28,Yes,,Female,English,Chrome,Mac,1120,1792,14.480916666666667,
24,default,block1,sophia,projective,0.96,8262,be_annoyed,25,be_annoyed,C,[],28,Yes,,Female,English,Chrome,Mac,1120,1792,14.480916666666667,
24,default,block1,kids,projective,0.99,8163,MC,26,MC,MC,[],28,Yes,,Female,English,Chrome,Mac,1120,1792,14.480916666666667,
24,default,block1,emma,projective,0.03,16029,be_right,27,be_right,C,[],28,Yes,,Female,English,Chrome,Mac,1120,1792,14.480916666666667,
24,default,block1,pizza,projective,0.96,11150,MC,28,MC,MC,[],28,Yes,,Female,English,Chrome,Mac,1120,1792,14.480916666666667,
24,default,block1,ballet,projective,0.98,8828,MC,29,MC,MC,[],28,Yes,,Female,English,Chrome,Mac,1120,1792,14.480916666666667,
24,default,block1,charley,projective,0.94,11989,discover,30,discover,C,[],28,Yes,,Female,English,Chrome,Mac,1120,1792,14.480916666666667,
24,default,block2,kids,ai,0.99,17751,MC,32,MC,MC,[],28,Yes,,Female,English,Chrome,Mac,1120,1792,14.480916666666667,
24,default,block2,zoe,ai,0.05,18867,say,33,say,C,[],28,Yes,,Female,English,Chrome,Mac,1120,1792,14.480916666666667,
24,default,block2,frank,ai,0.02,26818,inform,34,inform,C,[],28,Yes,,Female,English,Chrome,Mac,1120,1792,14.480916666666667,
24,default,block2,sophia,ai,0.03,17654,be_annoyed,35,be_annoyed,C,[],28,Yes,,Female,English,Chrome,Mac,1120,1792,14.480916666666667,
24,default,block2,ballet,ai,0.98,9531,MC,36,MC,MC,[],28,Yes,,Female,English,Chrome,Mac,1120,1792,14.480916666666667,
24,default,block2,josh,ai,0.13,25229,think,37,think,C,[],28,Yes,,Female,English,Chrome,Mac,1120,1792,14.480916666666667,
24,default,block2,tony,ai,0.04,12674,announce,38,announce,C,[],28,Yes,,Female,English,Chrome,Mac,1120,1792,14.480916666666667,
24,default,block2,jayden,ai,0.01,11341,confirm,39,confirm,C,[],28,Yes,,Female,English,Chrome,Mac,1120,1792,14.480916666666667,
24,default,block2,pizza,ai,0.98,4240,MC,40,MC,MC,[],28,Yes,,Female,English,Chrome,Mac,1120,1792,14.480916666666667,
24,default,block2,josie,ai,0.02,7119,acknowledge,41,acknowledge,C,[],28,Yes,,Female,English,Chrome,Mac,1120,1792,14.480916666666667,
24,default,block2,olivia,ai,0.02,13634,prove,42,prove,C,[],28,Yes,,Female,English,Chrome,Mac,1120,1792,14.480916666666667,
24,default,block2,emma,ai,0.02,37038,be_right,43,be_right,C,[],28,Yes,,Female,English,Chrome,Mac,1120,1792,14.480916666666667,
24,default,block2,jackson,ai,0.02,11878,know,44,know,C,[],28,Yes,,Female,English,Chrome,Mac,1120,1792,14.480916666666667,
24,default,block2,garage,ai,0.97,6695,MC,45,MC,MC,[],28,Yes,,Female,English,Chrome,Mac,1120,1792,14.480916666666667,
24,default,block2,hat,ai,0.97,6355,MC,46,MC,MC,[],28,Yes,,Female,English,Chrome,Mac,1120,1792,14.480916666666667,
24,default,block2,mia,ai,0.9,21243,pretend,47,pretend,C,[],28,Yes,,Female,English,Chrome,Mac,1120,1792,14.480916666666667,
24,default,block2,julian,ai,0.01,21276,reveal,48,reveal,C,[],28,Yes,,Female,English,Chrome,Mac,1120,1792,14.480916666666667,
24,default,block2,danny,ai,0.01,9684,suggest,49,suggest,C,[],28,Yes,,Female,English,Chrome,Mac,1120,1792,14.480916666666667,
24,default,block2,muffins,ai,0.97,4936,MC,50,MC,MC,[],28,Yes,,Female,English,Chrome,Mac,1120,1792,14.480916666666667,
24,default,block2,jon,ai,0.03,21086,demonstrate,51,demonstrate,C,[],28,Yes,,Female,English,Chrome,Mac,1120,1792,14.480916666666667,
24,default,block2,emily,ai,0.02,9588,hear,52,hear,C,[],28,Yes,,Female,English,Chrome,Mac,1120,1792,14.480916666666667,
24,default,block2,owen,ai,0.01,19558,confess,53,confess,C,[],28,Yes,,Female,English,Chrome,Mac,1120,1792,14.480916666666667,
24,default,block2,mary,ai,0.02,11037,admit,54,admit,C,[],28,Yes,,Female,English,Chrome,Mac,1120,1792,14.480916666666667,
24,default,block2,charley,ai,0.02,7590,discover,55,discover,C,[],28,Yes,,Female,English,Chrome,Mac,1120,1792,14.480916666666667,
24,default,block2,isabella,ai,0.03,18707,see,56,see,C,[],28,Yes,,Female,English,Chrome,Mac,1120,1792,14.480916666666667,
24,default,block2,grace,ai,0.02,15928,establish,57,establish,C,[],28,Yes,,Female,English,Chrome,Mac,1120,1792,14.480916666666667,
23,default,block1,grace,ai,0.04,39854,say,5,say,C,[],19,Yes,,Female,English,Chrome,Windows,720,1280,9.112166666666669,
23,default,block1,hat,ai,0.96,10447,MC,6,MC,MC,[],19,Yes,,Female,English,Chrome,Windows,720,1280,9.112166666666669,
23,default,block1,zoe,ai,0.07,17321,establish,7,establish,C,[],19,Yes,,Female,English,Chrome,Windows,720,1280,9.112166666666669,
23,default,block1,pizza,ai,0.99,4168,MC,8,MC,MC,[],19,Yes,,Female,English,Chrome,Windows,720,1280,9.112166666666669,
23,default,block1,frank,ai,0,11294,acknowledge,9,acknowledge,C,[],19,Yes,,Female,English,Chrome,Windows,720,1280,9.112166666666669,
23,default,block1,kids,ai,0.99,7441,MC,10,MC,MC,[],19,Yes,,Female,English,Chrome,Windows,720,1280,9.112166666666669,
23,default,block1,danny,ai,0.03,5024,confess,11,confess,C,[],19,Yes,,Female,English,Chrome,Windows,720,1280,9.112166666666669,
23,default,block1,muffins,ai,0.96,6072,MC,12,MC,MC,[],19,Yes,,Female,English,Chrome,Windows,720,1280,9.112166666666669,
23,default,block1,tony,ai,0.79,26447,be_right,13,be_right,C,[],19,Yes,,Female,English,Chrome,Windows,720,1280,9.112166666666669,
23,default,block1,jayden,ai,0.1,29976,hear,14,hear,C,[],19,Yes,,Female,English,Chrome,Windows,720,1280,9.112166666666669,
23,default,block1,josie,ai,0.08,6712,discover,15,discover,C,[],19,Yes,,Female,English,Chrome,Windows,720,1280,9.112166666666669,
23,default,block1,emily,ai,0.09,6655,confirm,16,confirm,C,[],19,Yes,,Female,English,Chrome,Windows,720,1280,9.112166666666669,
23,default,block1,jackson,ai,0.08,5617,think,17,think,C,[],19,Yes,,Female,English,Chrome,Windows,720,1280,9.112166666666669,
23,default,block1,ballet,ai,0.95,3855,MC,18,MC,MC,[],19,Yes,,Female,English,Chrome,Windows,720,1280,9.112166666666669,
23,default,block1,mary,ai,0.06,7272,suggest,19,suggest,C,[],19,Yes,,Female,English,Chrome,Windows,720,1280,9.112166666666669,
23,default,block1,jon,ai,0.08,4384,reveal,20,reveal,C,[],19,Yes,,Female,English,Chrome,Windows,720,1280,9.112166666666669,
23,default,block1,isabella,ai,0.06,6905,be_annoyed,21,be_annoyed,C,[],19,Yes,,Female,English,Chrome,Windows,720,1280,9.112166666666669,
23,default,block1,emma,ai,0.06,7135,see,22,see,C,[],19,Yes,,Female,English,Chrome,Windows,720,1280,9.112166666666669,
23,default,block1,garage,ai,0.97,4110,MC,23,MC,MC,[],19,Yes,,Female,English,Chrome,Windows,720,1280,9.112166666666669,
23,default,block1,sophia,ai,0.06,8288,inform,24,inform,C,[],19,Yes,,Female,English,Chrome,Windows,720,1280,9.112166666666669,
23,default,block1,julian,ai,0.06,6623,announce,25,announce,C,[],19,Yes,,Female,English,Chrome,Windows,720,1280,9.112166666666669,
23,default,block1,owen,ai,0.06,5000,admit,26,admit,C,[],19,Yes,,Female,English,Chrome,Windows,720,1280,9.112166666666669,
23,default,block1,josh,ai,0.05,11368,demonstrate,27,demonstrate,C,[],19,Yes,,Female,English,Chrome,Windows,720,1280,9.112166666666669,
23,default,block1,olivia,ai,0.07,4304,prove,28,prove,C,[],19,Yes,,Female,English,Chrome,Windows,720,1280,9.112166666666669,
23,default,block1,mia,ai,0.07,6928,know,29,know,C,[],19,Yes,,Female,English,Chrome,Windows,720,1280,9.112166666666669,
23,default,block1,charley,ai,0.06,8614,pretend,30,pretend,C,[],19,Yes,,Female,English,Chrome,Windows,720,1280,9.112166666666669,
23,default,block2,frank,projective,0.96,13566,acknowledge,32,acknowledge,C,[],19,Yes,,Female,English,Chrome,Windows,720,1280,9.112166666666669,
23,default,block2,josh,projective,0.92,15159,demonstrate,33,demonstrate,C,[],19,Yes,,Female,English,Chrome,Windows,720,1280,9.112166666666669,
23,default,block2,josie,projective,0.9,5783,discover,34,discover,C,[],19,Yes,,Female,English,Chrome,Windows,720,1280,9.112166666666669,
23,default,block2,garage,projective,1,9562,MC,35,MC,MC,[],19,Yes,,Female,English,Chrome,Windows,720,1280,9.112166666666669,
23,default,block2,hat,projective,0.99,3254,MC,36,MC,MC,[],19,Yes,,Female,English,Chrome,Windows,720,1280,9.112166666666669,
23,default,block2,muffins,projective,0.99,5337,MC,37,MC,MC,[],19,Yes,,Female,English,Chrome,Windows,720,1280,9.112166666666669,
23,default,block2,ballet,projective,0.97,2976,MC,38,MC,MC,[],19,Yes,,Female,English,Chrome,Windows,720,1280,9.112166666666669,
23,default,block2,owen,projective,0.03,15840,admit,39,admit,C,[],19,Yes,,Female,English,Chrome,Windows,720,1280,9.112166666666669,
23,default,block2,grace,projective,0.02,3656,say,40,say,C,[],19,Yes,,Female,English,Chrome,Windows,720,1280,9.112166666666669,
23,default,block2,zoe,projective,0.01,3672,establish,41,establish,C,[],19,Yes,,Female,English,Chrome,Windows,720,1280,9.112166666666669,
23,default,block2,olivia,projective,0.02,4000,prove,42,prove,C,[],19,Yes,,Female,English,Chrome,Windows,720,1280,9.112166666666669,
23,default,block2,mia,projective,0.94,5520,know,43,know,C,[],19,Yes,,Female,English,Chrome,Windows,720,1280,9.112166666666669,
23,default,block2,jayden,projective,0.96,6807,hear,44,hear,C,[],19,Yes,,Female,English,Chrome,Windows,720,1280,9.112166666666669,
23,default,block2,sophia,projective,0.94,11585,inform,45,inform,C,[],19,Yes,,Female,English,Chrome,Windows,720,1280,9.112166666666669,
23,default,block2,kids,projective,0.96,3808,MC,46,MC,MC,[],19,Yes,,Female,English,Chrome,Windows,720,1280,9.112166666666669,
23,default,block2,jackson,projective,0.96,6648,think,47,think,C,[],19,Yes,,Female,English,Chrome,Windows,720,1280,9.112166666666669,
23,default,block2,emma,projective,0.98,8454,see,48,see,C,[],19,Yes,,Female,English,Chrome,Windows,720,1280,9.112166666666669,
23,default,block2,mary,projective,0.07,12338,suggest,49,suggest,C,[],19,Yes,,Female,English,Chrome,Windows,720,1280,9.112166666666669,
23,default,block2,jon,projective,0.07,7399,reveal,50,reveal,C,[],19,Yes,,Female,English,Chrome,Windows,720,1280,9.112166666666669,
23,default,block2,emily,projective,0.05,6487,confirm,51,confirm,C,[],19,Yes,,Female,English,Chrome,Windows,720,1280,9.112166666666669,
23,default,block2,julian,projective,0.05,6305,announce,52,announce,C,[],19,Yes,,Female,English,Chrome,Windows,720,1280,9.112166666666669,
23,default,block2,pizza,projective,0.97,2694,MC,53,MC,MC,[],19,Yes,,Female,English,Chrome,Windows,720,1280,9.112166666666669,
23,default,block2,charley,projective,0.95,12602,pretend,54,pretend,C,[],19,Yes,,Female,English,Chrome,Windows,720,1280,9.112166666666669,
23,default,block2,isabella,projective,0.91,7760,be_annoyed,55,be_annoyed,C,[],19,Yes,,Female,English,Chrome,Windows,720,1280,9.112166666666669,
23,default,block2,tony,projective,0.93,5840,be_right,56,be_right,C,[],19,Yes,,Female,English,Chrome,Windows,720,1280,9.112166666666669,
23,default,block2,danny,projective,0.97,6511,confess,57,confess,C,[],19,Yes,,Female,English,Chrome,Windows,720,1280,9.112166666666669,
19,default,block1,julian,projective,0.09,16945,establish,5,establish,C,[],29,Yes,,Female,English ,Safari,Mac,1050,1680,7.84155,
19,default,block1,emma,projective,0.2,12176,pretend,6,pretend,C,[],29,Yes,,Female,English ,Safari,Mac,1050,1680,7.84155,
19,default,block1,pizza,projective,0.97,5229,MC,7,MC,MC,[],29,Yes,,Female,English ,Safari,Mac,1050,1680,7.84155,
19,default,block1,josh,projective,0.31,8975,hear,8,hear,C,[],29,Yes,,Female,English ,Safari,Mac,1050,1680,7.84155,
19,default,block1,garage,projective,0.98,4884,MC,9,MC,MC,[],29,Yes,,Female,English ,Safari,Mac,1050,1680,7.84155,
19,default,block1,mary,projective,0.32,18357,confirm,10,confirm,C,[],29,Yes,,Female,English ,Safari,Mac,1050,1680,7.84155,
19,default,block1,sophia,projective,0.24,4131,announce,11,announce,C,[],29,Yes,,Female,English ,Safari,Mac,1050,1680,7.84155,
19,default,block1,zoe,projective,0.2,6394,think,12,think,C,[],29,Yes,,Female,English ,Safari,Mac,1050,1680,7.84155,
19,default,block1,frank,projective,0.24,6935,discover,13,discover,C,[],29,Yes,,Female,English ,Safari,Mac,1050,1680,7.84155,
19,default,block1,hat,projective,0.98,3631,MC,14,MC,MC,[],29,Yes,,Female,English ,Safari,Mac,1050,1680,7.84155,
19,default,block1,charley,projective,0.5,5563,acknowledge,15,acknowledge,C,[],29,Yes,,Female,English ,Safari,Mac,1050,1680,7.84155,
19,default,block1,grace,projective,0.57,6854,see,16,see,C,[],29,Yes,,Female,English ,Safari,Mac,1050,1680,7.84155,
19,default,block1,muffins,projective,0.98,3786,MC,17,MC,MC,[],29,Yes,,Female,English ,Safari,Mac,1050,1680,7.84155,
19,default,block1,isabella,projective,0.66,7173,inform,18,inform,C,[],29,Yes,,Female,English ,Safari,Mac,1050,1680,7.84155,
19,default,block1,kids,projective,1,3397,MC,19,MC,MC,[],29,Yes,,Female,English ,Safari,Mac,1050,1680,7.84155,
19,default,block1,ballet,projective,0.91,3970,MC,20,MC,MC,[],29,Yes,,Female,English ,Safari,Mac,1050,1680,7.84155,
19,default,block1,jon,projective,0.32,5624,demonstrate,21,demonstrate,C,[],29,Yes,,Female,English ,Safari,Mac,1050,1680,7.84155,
19,default,block1,mia,projective,0.5,5622,admit,22,admit,C,[],29,Yes,,Female,English ,Safari,Mac,1050,1680,7.84155,
19,default,block1,josie,projective,0.12,3629,suggest,23,suggest,C,[],29,Yes,,Female,English ,Safari,Mac,1050,1680,7.84155,
19,default,block1,danny,projective,0.9,5066,know,24,know,C,[],29,Yes,,Female,English ,Safari,Mac,1050,1680,7.84155,
19,default,block1,owen,projective,0.36,29437,reveal,25,reveal,C,[],29,Yes,,Female,English ,Safari,Mac,1050,1680,7.84155,
19,default,block1,tony,projective,0.28,14376,prove,26,prove,C,[],29,Yes,,Female,English ,Safari,Mac,1050,1680,7.84155,
19,default,block1,emily,projective,0.45,6337,confess,27,confess,C,[],29,Yes,,Female,English ,Safari,Mac,1050,1680,7.84155,
19,default,block1,jackson,projective,0.13,5175,say,28,say,C,[],29,Yes,,Female,English ,Safari,Mac,1050,1680,7.84155,
19,default,block1,olivia,projective,0.8,8519,be_right,29,be_right,C,[],29,Yes,,Female,English ,Safari,Mac,1050,1680,7.84155,
19,default,block1,jayden,projective,0.77,6206,be_annoyed,30,be_annoyed,C,[],29,Yes,,Female,English ,Safari,Mac,1050,1680,7.84155,
19,default,block2,emily,ai,0.23,10542,confess,32,confess,C,[],29,Yes,,Female,English ,Safari,Mac,1050,1680,7.84155,
19,default,block2,jon,ai,0.48,10630,demonstrate,33,demonstrate,C,[],29,Yes,,Female,English ,Safari,Mac,1050,1680,7.84155,
19,default,block2,jackson,ai,0.24,9572,say,34,say,C,[],29,Yes,,Female,English ,Safari,Mac,1050,1680,7.84155,
19,default,block2,josh,ai,0.31,12659,hear,35,hear,C,[],29,Yes,,Female,English ,Safari,Mac,1050,1680,7.84155,
19,default,block2,mia,ai,0.45,7858,admit,36,admit,C,[],29,Yes,,Female,English ,Safari,Mac,1050,1680,7.84155,
19,default,block2,grace,ai,0.31,5923,see,37,see,C,[],29,Yes,,Female,English ,Safari,Mac,1050,1680,7.84155,
19,default,block2,olivia,ai,0.93,9244,be_right,38,be_right,C,[],29,Yes,,Female,English ,Safari,Mac,1050,1680,7.84155,
19,default,block2,jayden,ai,0.05,10618,be_annoyed,39,be_annoyed,C,[],29,Yes,,Female,English ,Safari,Mac,1050,1680,7.84155,
19,default,block2,ballet,ai,0.97,3870,MC,40,MC,MC,[],29,Yes,,Female,English ,Safari,Mac,1050,1680,7.84155,
19,default,block2,mary,ai,0.72,6621,confirm,41,confirm,C,[],29,Yes,,Female,English ,Safari,Mac,1050,1680,7.84155,
19,default,block2,garage,ai,0.94,4770,MC,42,MC,MC,[],29,Yes,,Female,English ,Safari,Mac,1050,1680,7.84155,
19,default,block2,josie,ai,0.14,10932,suggest,43,suggest,C,[],29,Yes,,Female,English ,Safari,Mac,1050,1680,7.84155,
19,default,block2,owen,ai,0.96,4415,reveal,44,reveal,C,[],29,Yes,,Female,English ,Safari,Mac,1050,1680,7.84155,
19,default,block2,julian,ai,0.52,7581,establish,45,establish,C,[],29,Yes,,Female,English ,Safari,Mac,1050,1680,7.84155,
19,default,block2,tony,ai,0.77,5150,prove,46,prove,C,[],29,Yes,,Female,English ,Safari,Mac,1050,1680,7.84155,
19,default,block2,isabella,ai,0.49,5704,inform,47,inform,C,[],29,Yes,,Female,English ,Safari,Mac,1050,1680,7.84155,
19,default,block2,emma,ai,0.27,5821,pretend,48,pretend,C,[],29,Yes,,Female,English ,Safari,Mac,1050,1680,7.84155,
19,default,block2,kids,ai,0.96,3551,MC,49,MC,MC,[],29,Yes,,Female,English ,Safari,Mac,1050,1680,7.84155,
19,default,block2,hat,ai,0.99,5255,MC,50,MC,MC,[],29,Yes,,Female,English ,Safari,Mac,1050,1680,7.84155,
19,default,block2,charley,ai,0.69,5367,acknowledge,51,acknowledge,C,[],29,Yes,,Female,English ,Safari,Mac,1050,1680,7.84155,
19,default,block2,zoe,ai,0.07,5589,think,52,think,C,[],29,Yes,,Female,English ,Safari,Mac,1050,1680,7.84155,
19,default,block2,danny,ai,0.62,6904,know,53,know,C,[],29,Yes,,Female,English ,Safari,Mac,1050,1680,7.84155,
19,default,block2,muffins,ai,0.97,8045,MC,54,MC,MC,[],29,Yes,,Female,English ,Safari,Mac,1050,1680,7.84155,
19,default,block2,sophia,ai,0.48,5218,announce,55,announce,C,[],29,Yes,,Female,English ,Safari,Mac,1050,1680,7.84155,
19,default,block2,pizza,ai,0.97,2696,MC,56,MC,MC,[],29,Yes,,Female,English ,Safari,Mac,1050,1680,7.84155,
19,default,block2,frank,ai,0.54,5109,discover,57,discover,C,[],29,Yes,,Female,English ,Safari,Mac,1050,1680,7.84155,
