workerid,proliferate.condition,block,content,question_type,response,rt,short_trigger,slide_number_in_experiment,trigger,trigger_class,catch_trials,subject_information.age,subject_information.american,subject_information.comments,subject_information.gender,subject_information.language,system.Browser,system.OS,system.screenH,system.screenW,time_in_minutes,error
1104,default,block1,hat,ai,0.71,44386,MC,5,MC,MC,[],31,Yes,,Female,English,Chrome,Windows,864,1536,20.7102,
1104,default,block1,charley,ai,0.12,63642,know,6,know,C,[],31,Yes,,Female,English,Chrome,Windows,864,1536,20.7102,
1104,default,block1,grace,ai,0,24363,discover,7,discover,C,[],31,Yes,,Female,English,Chrome,Windows,864,1536,20.7102,
1104,default,block1,sophia,ai,0.03,37689,see,8,see,C,[],31,Yes,,Female,English,Chrome,Windows,864,1536,20.7102,
1104,default,block1,danny,ai,0.03,44425,hear,9,hear,C,[],31,Yes,,Female,English,Chrome,Windows,864,1536,20.7102,
1104,default,block1,jon,ai,0.03,19989,establish,10,establish,C,[],31,Yes,,Female,English,Chrome,Windows,864,1536,20.7102,
1104,default,block1,jackson,ai,0.03,37230,think,11,think,C,[],31,Yes,,Female,English,Chrome,Windows,864,1536,20.7102,
1104,default,block1,isabella,ai,0,20903,acknowledge,12,acknowledge,C,[],31,Yes,,Female,English,Chrome,Windows,864,1536,20.7102,
1104,default,block1,mia,ai,0.03,29128,suggest,13,suggest,C,[],31,Yes,,Female,English,Chrome,Windows,864,1536,20.7102,
1104,default,block1,mary,ai,0.03,23005,prove,14,prove,C,[],31,Yes,,Female,English,Chrome,Windows,864,1536,20.7102,
1104,default,block1,josie,ai,0.03,18861,be_annoyed,15,be_annoyed,C,[],31,Yes,,Female,English,Chrome,Windows,864,1536,20.7102,
1104,default,block1,zoe,ai,0.01,28418,be_right,16,be_right,C,[],31,Yes,,Female,English,Chrome,Windows,864,1536,20.7102,
1104,default,block1,ballet,ai,0.82,28405,MC,17,MC,MC,[],31,Yes,,Female,English,Chrome,Windows,864,1536,20.7102,
1104,default,block1,tony,ai,0.01,13797,reveal,18,reveal,C,[],31,Yes,,Female,English,Chrome,Windows,864,1536,20.7102,
1104,default,block1,olivia,ai,0.02,29488,pretend,19,pretend,C,[],31,Yes,,Female,English,Chrome,Windows,864,1536,20.7102,
1104,default,block1,owen,ai,0.03,23159,inform,20,inform,C,[],31,Yes,,Female,English,Chrome,Windows,864,1536,20.7102,
1104,default,block1,emily,ai,0.02,11789,announce,21,announce,C,[],31,Yes,,Female,English,Chrome,Windows,864,1536,20.7102,
1104,default,block1,julian,ai,0.72,46569,demonstrate,22,demonstrate,C,[],31,Yes,,Female,English,Chrome,Windows,864,1536,20.7102,
1104,default,block1,frank,ai,0.11,35893,say,23,say,C,[],31,Yes,,Female,English,Chrome,Windows,864,1536,20.7102,
1104,default,block1,emma,ai,0.03,20088,confirm,24,confirm,C,[],31,Yes,,Female,English,Chrome,Windows,864,1536,20.7102,
1104,default,block1,muffins,ai,0.93,11006,MC,25,MC,MC,[],31,Yes,,Female,English,Chrome,Windows,864,1536,20.7102,
1104,default,block1,garage,ai,0.85,17696,MC,26,MC,MC,[],31,Yes,,Female,English,Chrome,Windows,864,1536,20.7102,
1104,default,block1,jayden,ai,0.07,12030,admit,27,admit,C,[],31,Yes,,Female,English,Chrome,Windows,864,1536,20.7102,
1104,default,block1,josh,ai,0.12,17986,confess,28,confess,C,[],31,Yes,,Female,English,Chrome,Windows,864,1536,20.7102,
1104,default,block1,kids,ai,0.81,25964,MC,29,MC,MC,[],31,Yes,,Female,English,Chrome,Windows,864,1536,20.7102,
1104,default,block1,pizza,ai,0.85,13927,MC,30,MC,MC,[],31,Yes,,Female,English,Chrome,Windows,864,1536,20.7102,
1104,default,block2,olivia,projective,0.47,43839,pretend,32,pretend,C,[],31,Yes,,Female,English,Chrome,Windows,864,1536,20.7102,
1104,default,block2,grace,projective,0.83,23494,discover,33,discover,C,[],31,Yes,,Female,English,Chrome,Windows,864,1536,20.7102,
1104,default,block2,charley,projective,0.85,14298,know,34,know,C,[],31,Yes,,Female,English,Chrome,Windows,864,1536,20.7102,
1104,default,block2,hat,projective,0.97,6986,MC,35,MC,MC,[],31,Yes,,Female,English,Chrome,Windows,864,1536,20.7102,
1104,default,block2,jon,projective,0.72,17233,establish,36,establish,C,[],31,Yes,,Female,English,Chrome,Windows,864,1536,20.7102,
1104,default,block2,isabella,projective,0.58,16830,acknowledge,37,acknowledge,C,[],31,Yes,,Female,English,Chrome,Windows,864,1536,20.7102,
1104,default,block2,pizza,projective,0.97,10707,MC,38,MC,MC,[],31,Yes,,Female,English,Chrome,Windows,864,1536,20.7102,
1104,default,block2,jayden,projective,0.14,8432,admit,39,admit,C,[],31,Yes,,Female,English,Chrome,Windows,864,1536,20.7102,
1104,default,block2,tony,projective,0.52,10571,reveal,40,reveal,C,[],31,Yes,,Female,English,Chrome,Windows,864,1536,20.7102,
1104,default,block2,frank,projective,0.5,10549,say,41,say,C,[],31,Yes,,Female,English,Chrome,Windows,864,1536,20.7102,
1104,default,block2,garage,projective,0.85,12696,MC,42,MC,MC,[],31,Yes,,Female,English,Chrome,Windows,864,1536,20.7102,
1104,default,block2,muffins,projective,0.97,7408,MC,43,MC,MC,[],31,Yes,,Female,English,Chrome,Windows,864,1536,20.7102,
1104,default,block2,sophia,projective,0.5,8962,see,44,see,C,[],31,Yes,,Female,English,Chrome,Windows,864,1536,20.7102,
1104,default,block2,mary,projective,0.36,13025,prove,45,prove,C,[],31,Yes,,Female,English,Chrome,Windows,864,1536,20.7102,
1104,default,block2,emma,projective,0.2,14034,confirm,46,confirm,C,[],31,Yes,,Female,English,Chrome,Windows,864,1536,20.7102,
1104,default,block2,owen,projective,0.49,20454,inform,47,inform,C,[],31,Yes,,Female,English,Chrome,Windows,864,1536,20.7102,
1104,default,block2,josie,projective,0.81,16340,be_annoyed,48,be_annoyed,C,[],31,Yes,,Female,English,Chrome,Windows,864,1536,20.7102,
1104,default,block2,ballet,projective,0.98,8554,MC,49,MC,MC,[],31,Yes,,Female,English,Chrome,Windows,864,1536,20.7102,
1104,default,block2,josh,projective,0.5,13313,confess,50,confess,C,[],31,Yes,,Female,English,Chrome,Windows,864,1536,20.7102,
1104,default,block2,jackson,projective,0.52,11914,think,51,think,C,[],31,Yes,,Female,English,Chrome,Windows,864,1536,20.7102,
1104,default,block2,emily,projective,0.64,13051,announce,52,announce,C,[],31,Yes,,Female,English,Chrome,Windows,864,1536,20.7102,
1104,default,block2,zoe,projective,0.21,26312,be_right,53,be_right,C,[],31,Yes,,Female,English,Chrome,Windows,864,1536,20.7102,
1104,default,block2,kids,projective,0.94,15306,MC,54,MC,MC,[],31,Yes,,Female,English,Chrome,Windows,864,1536,20.7102,
1104,default,block2,julian,projective,0.5,15372,demonstrate,55,demonstrate,C,[],31,Yes,,Female,English,Chrome,Windows,864,1536,20.7102,
1104,default,block2,danny,projective,0.49,18840,hear,56,hear,C,[],31,Yes,,Female,English,Chrome,Windows,864,1536,20.7102,
1104,default,block2,mia,projective,0.49,9022,suggest,57,suggest,C,[],31,Yes,,Female,English,Chrome,Windows,864,1536,20.7102,
1105,default,block1,jayden,ai,0,30931,admit,5,admit,C,[],26,Yes,,Female,english,Chrome,Windows,1440,2560,7.856133333333333,
1105,default,block1,grace,ai,0,15099,think,6,think,C,[],26,Yes,,Female,english,Chrome,Windows,1440,2560,7.856133333333333,
1105,default,block1,charley,ai,0,7010,discover,7,discover,C,[],26,Yes,,Female,english,Chrome,Windows,1440,2560,7.856133333333333,
1105,default,block1,olivia,ai,0,7595,say,8,say,C,[],26,Yes,,Female,english,Chrome,Windows,1440,2560,7.856133333333333,
1105,default,block1,josh,ai,0,4051,confirm,9,confirm,C,[],26,Yes,,Female,english,Chrome,Windows,1440,2560,7.856133333333333,
1105,default,block1,zoe,ai,0.01,7470,suggest,10,suggest,C,[],26,Yes,,Female,english,Chrome,Windows,1440,2560,7.856133333333333,
1105,default,block1,jon,ai,0.01,11466,demonstrate,11,demonstrate,C,[],26,Yes,,Female,english,Chrome,Windows,1440,2560,7.856133333333333,
1105,default,block1,emma,ai,0.01,5029,confess,12,confess,C,[],26,Yes,,Female,english,Chrome,Windows,1440,2560,7.856133333333333,
1105,default,block1,pizza,ai,0,6674,MC,13,MC,MC,[],26,Yes,,Female,english,Chrome,Windows,1440,2560,7.856133333333333,
1105,default,block1,hat,ai,0,4431,MC,14,MC,MC,[],26,Yes,,Female,english,Chrome,Windows,1440,2560,7.856133333333333,
1105,default,block1,ballet,ai,0.01,6369,MC,15,MC,MC,[],26,Yes,,Female,english,Chrome,Windows,1440,2560,7.856133333333333,
1105,default,block1,julian,ai,0.02,3566,know,16,know,C,[],26,Yes,,Female,english,Chrome,Windows,1440,2560,7.856133333333333,
1105,default,block1,garage,ai,0.84,15194,MC,17,MC,MC,[],26,Yes,,Female,english,Chrome,Windows,1440,2560,7.856133333333333,
1105,default,block1,tony,ai,0.01,7582,inform,18,inform,C,[],26,Yes,,Female,english,Chrome,Windows,1440,2560,7.856133333333333,
1105,default,block1,owen,ai,0,9035,be_right,19,be_right,C,[],26,Yes,,Female,english,Chrome,Windows,1440,2560,7.856133333333333,
1105,default,block1,frank,ai,0.02,5119,acknowledge,20,acknowledge,C,[],26,Yes,,Female,english,Chrome,Windows,1440,2560,7.856133333333333,
1105,default,block1,sophia,ai,0.02,4106,see,21,see,C,[],26,Yes,,Female,english,Chrome,Windows,1440,2560,7.856133333333333,
1105,default,block1,josie,ai,0,3994,establish,22,establish,C,[],26,Yes,,Female,english,Chrome,Windows,1440,2560,7.856133333333333,
1105,default,block1,isabella,ai,0,7638,pretend,23,pretend,C,[],26,Yes,,Female,english,Chrome,Windows,1440,2560,7.856133333333333,
1105,default,block1,kids,ai,0.1,9092,MC,24,MC,MC,[],26,Yes,,Female,english,Chrome,Windows,1440,2560,7.856133333333333,
1105,default,block1,mia,ai,0.03,4626,announce,25,announce,C,[],26,Yes,,Female,english,Chrome,Windows,1440,2560,7.856133333333333,
1105,default,block1,emily,ai,0.71,13747,be_annoyed,26,be_annoyed,C,[],26,Yes,,Female,english,Chrome,Windows,1440,2560,7.856133333333333,
1105,default,block1,muffins,ai,0.97,7248,MC,27,MC,MC,[],26,Yes,,Female,english,Chrome,Windows,1440,2560,7.856133333333333,
1105,default,block1,jackson,ai,0,8540,hear,28,hear,C,[],26,Yes,,Female,english,Chrome,Windows,1440,2560,7.856133333333333,
1105,default,block1,danny,ai,0.82,10326,prove,29,prove,C,[],26,Yes,,Female,english,Chrome,Windows,1440,2560,7.856133333333333,
1105,default,block1,mary,ai,0.49,7967,reveal,30,reveal,C,[],26,Yes,,Female,english,Chrome,Windows,1440,2560,7.856133333333333,
1105,default,block2,kids,projective,0.98,12343,MC,32,MC,MC,[],26,Yes,,Female,english,Chrome,Windows,1440,2560,7.856133333333333,
1105,default,block2,zoe,projective,0.02,6851,suggest,33,suggest,C,[],26,Yes,,Female,english,Chrome,Windows,1440,2560,7.856133333333333,
1105,default,block2,ballet,projective,1,7471,MC,34,MC,MC,[],26,Yes,,Female,english,Chrome,Windows,1440,2560,7.856133333333333,
1105,default,block2,jayden,projective,0.02,7417,admit,35,admit,C,[],26,Yes,,Female,english,Chrome,Windows,1440,2560,7.856133333333333,
1105,default,block2,owen,projective,0,19669,be_right,36,be_right,C,[],26,Yes,,Female,english,Chrome,Windows,1440,2560,7.856133333333333,
1105,default,block2,isabella,projective,0.84,9461,pretend,37,pretend,C,[],26,Yes,,Female,english,Chrome,Windows,1440,2560,7.856133333333333,
1105,default,block2,julian,projective,0.62,6323,know,38,know,C,[],26,Yes,,Female,english,Chrome,Windows,1440,2560,7.856133333333333,
1105,default,block2,mia,projective,0.56,6841,announce,39,announce,C,[],26,Yes,,Female,english,Chrome,Windows,1440,2560,7.856133333333333,
1105,default,block2,mary,projective,0.56,4108,reveal,40,reveal,C,[],26,Yes,,Female,english,Chrome,Windows,1440,2560,7.856133333333333,
1105,default,block2,danny,projective,0.55,4872,prove,41,prove,C,[],26,Yes,,Female,english,Chrome,Windows,1440,2560,7.856133333333333,
1105,default,block2,charley,projective,0.8,6919,discover,42,discover,C,[],26,Yes,,Female,english,Chrome,Windows,1440,2560,7.856133333333333,
1105,default,block2,jackson,projective,0.68,5096,hear,43,hear,C,[],26,Yes,,Female,english,Chrome,Windows,1440,2560,7.856133333333333,
1105,default,block2,josh,projective,0.7,4087,confirm,44,confirm,C,[],26,Yes,,Female,english,Chrome,Windows,1440,2560,7.856133333333333,
1105,default,block2,pizza,projective,1,5006,MC,45,MC,MC,[],26,Yes,,Female,english,Chrome,Windows,1440,2560,7.856133333333333,
1105,default,block2,emily,projective,1,6332,be_annoyed,46,be_annoyed,C,[],26,Yes,,Female,english,Chrome,Windows,1440,2560,7.856133333333333,
1105,default,block2,muffins,projective,1,4525,MC,47,MC,MC,[],26,Yes,,Female,english,Chrome,Windows,1440,2560,7.856133333333333,
1105,default,block2,frank,projective,1,4758,acknowledge,48,acknowledge,C,[],26,Yes,,Female,english,Chrome,Windows,1440,2560,7.856133333333333,
1105,default,block2,emma,projective,0.74,7870,confess,49,confess,C,[],26,Yes,,Female,english,Chrome,Windows,1440,2560,7.856133333333333,
1105,default,block2,hat,projective,0.98,3462,MC,50,MC,MC,[],26,Yes,,Female,english,Chrome,Windows,1440,2560,7.856133333333333,
1105,default,block2,sophia,projective,1,3916,see,51,see,C,[],26,Yes,,Female,english,Chrome,Windows,1440,2560,7.856133333333333,
1105,default,block2,olivia,projective,0.74,3781,say,52,say,C,[],26,Yes,,Female,english,Chrome,Windows,1440,2560,7.856133333333333,
1105,default,block2,jon,projective,0.71,4938,demonstrate,53,demonstrate,C,[],26,Yes,,Female,english,Chrome,Windows,1440,2560,7.856133333333333,
1105,default,block2,tony,projective,0.81,5109,inform,54,inform,C,[],26,Yes,,Female,english,Chrome,Windows,1440,2560,7.856133333333333,
1105,default,block2,grace,projective,0.63,5121,think,55,think,C,[],26,Yes,,Female,english,Chrome,Windows,1440,2560,7.856133333333333,
1105,default,block2,garage,projective,1,4017,MC,56,MC,MC,[],26,Yes,,Female,english,Chrome,Windows,1440,2560,7.856133333333333,
1105,default,block2,josie,projective,0.68,10498,establish,57,establish,C,[],26,Yes,,Female,english,Chrome,Windows,1440,2560,7.856133333333333,
1107,default,block1,emily,projective,0.82,1615,announce,5,announce,C,[],50,Yes,well,Male,einglish,Firefox,Windows,900,1600,5.767066666666667,
1107,default,block1,pizza,projective,0.8,1272,MC,6,MC,MC,[],50,Yes,well,Male,einglish,Firefox,Windows,900,1600,5.767066666666667,
1107,default,block1,jon,projective,0.07,1591,inform,7,inform,C,[],50,Yes,well,Male,einglish,Firefox,Windows,900,1600,5.767066666666667,
1107,default,block1,frank,projective,0.83,1208,prove,8,prove,C,[],50,Yes,well,Male,einglish,Firefox,Windows,900,1600,5.767066666666667,
1107,default,block1,mary,projective,0.79,1184,demonstrate,9,demonstrate,C,[],50,Yes,well,Male,einglish,Firefox,Windows,900,1600,5.767066666666667,
1107,default,block1,josie,projective,0.82,1159,suggest,10,suggest,C,[],50,Yes,well,Male,einglish,Firefox,Windows,900,1600,5.767066666666667,
1107,default,block1,zoe,projective,0.1,1632,confess,11,confess,C,[],50,Yes,well,Male,einglish,Firefox,Windows,900,1600,5.767066666666667,
1107,default,block1,kids,projective,0.87,1448,MC,12,MC,MC,[],50,Yes,well,Male,einglish,Firefox,Windows,900,1600,5.767066666666667,
1107,default,block1,ballet,projective,0.81,1080,MC,13,MC,MC,[],50,Yes,well,Male,einglish,Firefox,Windows,900,1600,5.767066666666667,
1107,default,block1,sophia,projective,0.83,1056,be_annoyed,14,be_annoyed,C,[],50,Yes,well,Male,einglish,Firefox,Windows,900,1600,5.767066666666667,
1107,default,block1,jackson,projective,0.8,1192,hear,15,hear,C,[],50,Yes,well,Male,einglish,Firefox,Windows,900,1600,5.767066666666667,
1107,default,block1,danny,projective,0.14,1104,establish,16,establish,C,[],50,Yes,well,Male,einglish,Firefox,Windows,900,1600,5.767066666666667,
1107,default,block1,emma,projective,0.88,1608,confirm,17,confirm,C,[],50,Yes,well,Male,einglish,Firefox,Windows,900,1600,5.767066666666667,
1107,default,block1,julian,projective,0.85,3040,admit,18,admit,C,[],50,Yes,well,Male,einglish,Firefox,Windows,900,1600,5.767066666666667,
1107,default,block1,muffins,projective,0.89,3511,MC,19,MC,MC,[],50,Yes,well,Male,einglish,Firefox,Windows,900,1600,5.767066666666667,
1107,default,block1,olivia,projective,0.85,1143,pretend,20,pretend,C,[],50,Yes,well,Male,einglish,Firefox,Windows,900,1600,5.767066666666667,
1107,default,block1,mia,projective,0.85,1048,see,21,see,C,[],50,Yes,well,Male,einglish,Firefox,Windows,900,1600,5.767066666666667,
1107,default,block1,josh,projective,0.07,1288,think,22,think,C,[],50,Yes,well,Male,einglish,Firefox,Windows,900,1600,5.767066666666667,
1107,default,block1,garage,projective,0.86,1368,MC,23,MC,MC,[],50,Yes,well,Male,einglish,Firefox,Windows,900,1600,5.767066666666667,
1107,default,block1,jayden,projective,0.82,1072,acknowledge,24,acknowledge,C,[],50,Yes,well,Male,einglish,Firefox,Windows,900,1600,5.767066666666667,
1107,default,block1,hat,projective,0.13,1208,MC,25,MC,MC,[],50,Yes,well,Male,einglish,Firefox,Windows,900,1600,5.767066666666667,
1107,default,block1,owen,projective,0.84,1960,reveal,26,reveal,C,[],50,Yes,well,Male,einglish,Firefox,Windows,900,1600,5.767066666666667,
1107,default,block1,charley,projective,0.83,1000,know,27,know,C,[],50,Yes,well,Male,einglish,Firefox,Windows,900,1600,5.767066666666667,
1107,default,block1,grace,projective,0.81,1120,discover,28,discover,C,[],50,Yes,well,Male,einglish,Firefox,Windows,900,1600,5.767066666666667,
1107,default,block1,tony,projective,0.16,1104,say,29,say,C,[],50,Yes,well,Male,einglish,Firefox,Windows,900,1600,5.767066666666667,
1107,default,block1,isabella,projective,0.14,1511,be_right,30,be_right,C,[],50,Yes,well,Male,einglish,Firefox,Windows,900,1600,5.767066666666667,
1107,default,block2,charley,ai,0.84,2207,know,32,know,C,[],50,Yes,well,Male,einglish,Firefox,Windows,900,1600,5.767066666666667,
1107,default,block2,jayden,ai,0.88,2416,acknowledge,33,acknowledge,C,[],50,Yes,well,Male,einglish,Firefox,Windows,900,1600,5.767066666666667,
1107,default,block2,mary,ai,0.23,3040,demonstrate,34,demonstrate,C,[],50,Yes,well,Male,einglish,Firefox,Windows,900,1600,5.767066666666667,
1107,default,block2,josie,ai,0.73,1975,suggest,35,suggest,C,[],50,Yes,well,Male,einglish,Firefox,Windows,900,1600,5.767066666666667,
1107,default,block2,mia,ai,0.29,1176,see,36,see,C,[],50,Yes,well,Male,einglish,Firefox,Windows,900,1600,5.767066666666667,
1107,default,block2,grace,ai,0.74,1520,discover,37,discover,C,[],50,Yes,well,Male,einglish,Firefox,Windows,900,1600,5.767066666666667,
1107,default,block2,emma,ai,0.84,13440,confirm,38,confirm,C,[],50,Yes,well,Male,einglish,Firefox,Windows,900,1600,5.767066666666667,
1107,default,block2,pizza,ai,0.1,2464,MC,39,MC,MC,[],50,Yes,well,Male,einglish,Firefox,Windows,900,1600,5.767066666666667,
1107,default,block2,olivia,ai,0.89,1616,pretend,40,pretend,C,[],50,Yes,well,Male,einglish,Firefox,Windows,900,1600,5.767066666666667,
1107,default,block2,sophia,ai,0.72,2064,be_annoyed,41,be_annoyed,C,[],50,Yes,well,Male,einglish,Firefox,Windows,900,1600,5.767066666666667,
1107,default,block2,jackson,ai,0.21,2601,hear,42,hear,C,[],50,Yes,well,Male,einglish,Firefox,Windows,900,1600,5.767066666666667,
1107,default,block2,garage,ai,0.31,1863,MC,43,MC,MC,[],50,Yes,well,Male,einglish,Firefox,Windows,900,1600,5.767066666666667,
1107,default,block2,isabella,ai,0.85,2224,be_right,44,be_right,C,[],50,Yes,well,Male,einglish,Firefox,Windows,900,1600,5.767066666666667,
1107,default,block2,owen,ai,0.35,1576,reveal,45,reveal,C,[],50,Yes,well,Male,einglish,Firefox,Windows,900,1600,5.767066666666667,
1107,default,block2,kids,ai,0.85,4984,MC,46,MC,MC,[],50,Yes,well,Male,einglish,Firefox,Windows,900,1600,5.767066666666667,
1107,default,block2,jon,ai,0.13,2511,inform,47,inform,C,[],50,Yes,well,Male,einglish,Firefox,Windows,900,1600,5.767066666666667,
1107,default,block2,danny,ai,0.77,2048,establish,48,establish,C,[],50,Yes,well,Male,einglish,Firefox,Windows,900,1600,5.767066666666667,
1107,default,block2,julian,ai,0.81,1680,admit,49,admit,C,[],50,Yes,well,Male,einglish,Firefox,Windows,900,1600,5.767066666666667,
1107,default,block2,zoe,ai,0.8,2479,confess,50,confess,C,[],50,Yes,well,Male,einglish,Firefox,Windows,900,1600,5.767066666666667,
1107,default,block2,muffins,ai,0.14,1849,MC,51,MC,MC,[],50,Yes,well,Male,einglish,Firefox,Windows,900,1600,5.767066666666667,
1107,default,block2,emily,ai,0.83,2144,announce,52,announce,C,[],50,Yes,well,Male,einglish,Firefox,Windows,900,1600,5.767066666666667,
1107,default,block2,tony,ai,0.84,4664,say,53,say,C,[],50,Yes,well,Male,einglish,Firefox,Windows,900,1600,5.767066666666667,
1107,default,block2,ballet,ai,0.16,2184,MC,54,MC,MC,[],50,Yes,well,Male,einglish,Firefox,Windows,900,1600,5.767066666666667,
1107,default,block2,hat,ai,0.81,2808,MC,55,MC,MC,[],50,Yes,well,Male,einglish,Firefox,Windows,900,1600,5.767066666666667,
1107,default,block2,frank,ai,0.8,2751,prove,56,prove,C,[],50,Yes,well,Male,einglish,Firefox,Windows,900,1600,5.767066666666667,
1107,default,block2,josh,ai,0.85,64369,think,57,think,C,[],50,Yes,well,Male,einglish,Firefox,Windows,900,1600,5.767066666666667,
1101,default,block1,emma,ai,0.73,27122,see,5,see,C,[],48,Yes,"Thank you for giving me the survey. I am very pleased to work with you.
",Male,English,Firefox,Windows,768,1366,36.86161666666667,
1101,default,block1,josie,ai,0.26,10061,discover,6,discover,C,[],48,Yes,"Thank you for giving me the survey. I am very pleased to work with you.
",Male,English,Firefox,Windows,768,1366,36.86161666666667,
1101,default,block1,muffins,ai,0.18,120871,MC,7,MC,MC,[],48,Yes,"Thank you for giving me the survey. I am very pleased to work with you.
",Male,English,Firefox,Windows,768,1366,36.86161666666667,
1101,default,block1,frank,ai,0.2,80854,demonstrate,8,demonstrate,C,[],48,Yes,"Thank you for giving me the survey. I am very pleased to work with you.
",Male,English,Firefox,Windows,768,1366,36.86161666666667,
1101,default,block1,hat,ai,0.74,8950,MC,9,MC,MC,[],48,Yes,"Thank you for giving me the survey. I am very pleased to work with you.
",Male,English,Firefox,Windows,768,1366,36.86161666666667,
1101,default,block1,jayden,ai,0.85,6260,say,10,say,C,[],48,Yes,"Thank you for giving me the survey. I am very pleased to work with you.
",Male,English,Firefox,Windows,768,1366,36.86161666666667,
1101,default,block1,josh,ai,0.81,26232,confirm,11,confirm,C,[],48,Yes,"Thank you for giving me the survey. I am very pleased to work with you.
",Male,English,Firefox,Windows,768,1366,36.86161666666667,
1101,default,block1,mia,ai,0.18,9545,acknowledge,12,acknowledge,C,[],48,Yes,"Thank you for giving me the survey. I am very pleased to work with you.
",Male,English,Firefox,Windows,768,1366,36.86161666666667,
1101,default,block1,pizza,ai,0.2,11325,MC,13,MC,MC,[],48,Yes,"Thank you for giving me the survey. I am very pleased to work with you.
",Male,English,Firefox,Windows,768,1366,36.86161666666667,
1101,default,block1,emily,ai,0.14,10101,be_right,14,be_right,C,[],48,Yes,"Thank you for giving me the survey. I am very pleased to work with you.
",Male,English,Firefox,Windows,768,1366,36.86161666666667,
1101,default,block1,grace,ai,0.15,103697,reveal,15,reveal,C,[],48,Yes,"Thank you for giving me the survey. I am very pleased to work with you.
",Male,English,Firefox,Windows,768,1366,36.86161666666667,
1101,default,block1,tony,ai,0.2,64876,confess,16,confess,C,[],48,Yes,"Thank you for giving me the survey. I am very pleased to work with you.
",Male,English,Firefox,Windows,768,1366,36.86161666666667,
1101,default,block1,mary,ai,0.13,59292,pretend,17,pretend,C,[],48,Yes,"Thank you for giving me the survey. I am very pleased to work with you.
",Male,English,Firefox,Windows,768,1366,36.86161666666667,
1101,default,block1,charley,ai,0.17,5539,hear,18,hear,C,[],48,Yes,"Thank you for giving me the survey. I am very pleased to work with you.
",Male,English,Firefox,Windows,768,1366,36.86161666666667,
1101,default,block1,olivia,ai,0.14,6744,suggest,19,suggest,C,[],48,Yes,"Thank you for giving me the survey. I am very pleased to work with you.
",Male,English,Firefox,Windows,768,1366,36.86161666666667,
1101,default,block1,zoe,ai,0.13,8995,announce,20,announce,C,[],48,Yes,"Thank you for giving me the survey. I am very pleased to work with you.
",Male,English,Firefox,Windows,768,1366,36.86161666666667,
1101,default,block1,sophia,ai,0.22,8826,establish,21,establish,C,[],48,Yes,"Thank you for giving me the survey. I am very pleased to work with you.
",Male,English,Firefox,Windows,768,1366,36.86161666666667,
1101,default,block1,isabella,ai,0.22,3604,admit,22,admit,C,[],48,Yes,"Thank you for giving me the survey. I am very pleased to work with you.
",Male,English,Firefox,Windows,768,1366,36.86161666666667,
1101,default,block1,ballet,ai,0.17,4695,MC,23,MC,MC,[],48,Yes,"Thank you for giving me the survey. I am very pleased to work with you.
",Male,English,Firefox,Windows,768,1366,36.86161666666667,
1101,default,block1,kids,ai,0.3,10540,MC,24,MC,MC,[],48,Yes,"Thank you for giving me the survey. I am very pleased to work with you.
",Male,English,Firefox,Windows,768,1366,36.86161666666667,
1101,default,block1,julian,ai,0.25,6820,be_annoyed,25,be_annoyed,C,[],48,Yes,"Thank you for giving me the survey. I am very pleased to work with you.
",Male,English,Firefox,Windows,768,1366,36.86161666666667,
1101,default,block1,garage,ai,0.26,8105,MC,26,MC,MC,[],48,Yes,"Thank you for giving me the survey. I am very pleased to work with you.
",Male,English,Firefox,Windows,768,1366,36.86161666666667,
1101,default,block1,jackson,ai,0.74,6642,think,27,think,C,[],48,Yes,"Thank you for giving me the survey. I am very pleased to work with you.
",Male,English,Firefox,Windows,768,1366,36.86161666666667,
1101,default,block1,jon,ai,0.8,4216,prove,28,prove,C,[],48,Yes,"Thank you for giving me the survey. I am very pleased to work with you.
",Male,English,Firefox,Windows,768,1366,36.86161666666667,
1101,default,block1,owen,ai,0.64,3274,know,29,know,C,[],48,Yes,"Thank you for giving me the survey. I am very pleased to work with you.
",Male,English,Firefox,Windows,768,1366,36.86161666666667,
1101,default,block1,danny,ai,0.77,3062,inform,30,inform,C,[],48,Yes,"Thank you for giving me the survey. I am very pleased to work with you.
",Male,English,Firefox,Windows,768,1366,36.86161666666667,
1101,default,block2,julian,projective,0.77,15802,be_annoyed,32,be_annoyed,C,[],48,Yes,"Thank you for giving me the survey. I am very pleased to work with you.
",Male,English,Firefox,Windows,768,1366,36.86161666666667,
1101,default,block2,jon,projective,0.16,8222,prove,33,prove,C,[],48,Yes,"Thank you for giving me the survey. I am very pleased to work with you.
",Male,English,Firefox,Windows,768,1366,36.86161666666667,
1101,default,block2,josh,projective,0.17,12866,confirm,34,confirm,C,[],48,Yes,"Thank you for giving me the survey. I am very pleased to work with you.
",Male,English,Firefox,Windows,768,1366,36.86161666666667,
1101,default,block2,olivia,projective,0.21,4642,suggest,35,suggest,C,[],48,Yes,"Thank you for giving me the survey. I am very pleased to work with you.
",Male,English,Firefox,Windows,768,1366,36.86161666666667,
1101,default,block2,isabella,projective,0.16,10283,admit,36,admit,C,[],48,Yes,"Thank you for giving me the survey. I am very pleased to work with you.
",Male,English,Firefox,Windows,768,1366,36.86161666666667,
1101,default,block2,grace,projective,0.13,72682,reveal,37,reveal,C,[],48,Yes,"Thank you for giving me the survey. I am very pleased to work with you.
",Male,English,Firefox,Windows,768,1366,36.86161666666667,
1101,default,block2,emma,projective,0.14,3260,see,38,see,C,[],48,Yes,"Thank you for giving me the survey. I am very pleased to work with you.
",Male,English,Firefox,Windows,768,1366,36.86161666666667,
1101,default,block2,emily,projective,0.78,5133,be_right,39,be_right,C,[],48,Yes,"Thank you for giving me the survey. I am very pleased to work with you.
",Male,English,Firefox,Windows,768,1366,36.86161666666667,
1101,default,block2,sophia,projective,0.27,4960,establish,40,establish,C,[],48,Yes,"Thank you for giving me the survey. I am very pleased to work with you.
",Male,English,Firefox,Windows,768,1366,36.86161666666667,
1101,default,block2,zoe,projective,0.17,4969,announce,41,announce,C,[],48,Yes,"Thank you for giving me the survey. I am very pleased to work with you.
",Male,English,Firefox,Windows,768,1366,36.86161666666667,
1101,default,block2,charley,projective,0.82,7836,hear,42,hear,C,[],48,Yes,"Thank you for giving me the survey. I am very pleased to work with you.
",Male,English,Firefox,Windows,768,1366,36.86161666666667,
1101,default,block2,frank,projective,0.82,2733,demonstrate,43,demonstrate,C,[],48,Yes,"Thank you for giving me the survey. I am very pleased to work with you.
",Male,English,Firefox,Windows,768,1366,36.86161666666667,
1101,default,block2,jackson,projective,0.23,1320,think,44,think,C,[],48,Yes,"Thank you for giving me the survey. I am very pleased to work with you.
",Male,English,Firefox,Windows,768,1366,36.86161666666667,
1101,default,block2,danny,projective,0.17,3092,inform,45,inform,C,[],48,Yes,"Thank you for giving me the survey. I am very pleased to work with you.
",Male,English,Firefox,Windows,768,1366,36.86161666666667,
1101,default,block2,jayden,projective,0.7,1398,say,46,say,C,[],48,Yes,"Thank you for giving me the survey. I am very pleased to work with you.
",Male,English,Firefox,Windows,768,1366,36.86161666666667,
1101,default,block2,mary,projective,0.28,1277,pretend,47,pretend,C,[],48,Yes,"Thank you for giving me the survey. I am very pleased to work with you.
",Male,English,Firefox,Windows,768,1366,36.86161666666667,
1101,default,block2,hat,projective,0.8,1111,MC,48,MC,MC,[],48,Yes,"Thank you for giving me the survey. I am very pleased to work with you.
",Male,English,Firefox,Windows,768,1366,36.86161666666667,
1101,default,block2,owen,projective,0.77,1228,know,49,know,C,[],48,Yes,"Thank you for giving me the survey. I am very pleased to work with you.
",Male,English,Firefox,Windows,768,1366,36.86161666666667,
1101,default,block2,garage,projective,0.23,1292,MC,50,MC,MC,[],48,Yes,"Thank you for giving me the survey. I am very pleased to work with you.
",Male,English,Firefox,Windows,768,1366,36.86161666666667,
1101,default,block2,tony,projective,0.75,1939,confess,51,confess,C,[],48,Yes,"Thank you for giving me the survey. I am very pleased to work with you.
",Male,English,Firefox,Windows,768,1366,36.86161666666667,
1101,default,block2,mia,projective,0.23,1515,acknowledge,52,acknowledge,C,[],48,Yes,"Thank you for giving me the survey. I am very pleased to work with you.
",Male,English,Firefox,Windows,768,1366,36.86161666666667,
1101,default,block2,ballet,projective,0.23,2044,MC,53,MC,MC,[],48,Yes,"Thank you for giving me the survey. I am very pleased to work with you.
",Male,English,Firefox,Windows,768,1366,36.86161666666667,
1101,default,block2,pizza,projective,0.74,975,MC,54,MC,MC,[],48,Yes,"Thank you for giving me the survey. I am very pleased to work with you.
",Male,English,Firefox,Windows,768,1366,36.86161666666667,
1101,default,block2,kids,projective,0.31,1083,MC,55,MC,MC,[],48,Yes,"Thank you for giving me the survey. I am very pleased to work with you.
",Male,English,Firefox,Windows,768,1366,36.86161666666667,
1101,default,block2,muffins,projective,0.26,1307,MC,56,MC,MC,[],48,Yes,"Thank you for giving me the survey. I am very pleased to work with you.
",Male,English,Firefox,Windows,768,1366,36.86161666666667,
1101,default,block2,josie,projective,0.28,1063,discover,57,discover,C,[],48,Yes,"Thank you for giving me the survey. I am very pleased to work with you.
",Male,English,Firefox,Windows,768,1366,36.86161666666667,
1099,default,block1,mia,ai,0.59,6940,hear,5,hear,C,[],41,Yes,Thank you.,Male,English,Firefox,Windows,768,1024,10.109583333333331,
1099,default,block1,isabella,ai,0.62,17608,be_right,6,be_right,C,[],41,Yes,Thank you.,Male,English,Firefox,Windows,768,1024,10.109583333333331,
1099,default,block1,sophia,ai,0.32,5576,reveal,7,reveal,C,[],41,Yes,Thank you.,Male,English,Firefox,Windows,768,1024,10.109583333333331,
1099,default,block1,olivia,ai,0.75,2000,know,8,know,C,[],41,Yes,Thank you.,Male,English,Firefox,Windows,768,1024,10.109583333333331,
1099,default,block1,zoe,ai,0.42,1632,see,9,see,C,[],41,Yes,Thank you.,Male,English,Firefox,Windows,768,1024,10.109583333333331,
1099,default,block1,jon,ai,0.64,1648,announce,10,announce,C,[],41,Yes,Thank you.,Male,English,Firefox,Windows,768,1024,10.109583333333331,
1099,default,block1,jayden,ai,0.82,46423,acknowledge,11,acknowledge,C,[],41,Yes,Thank you.,Male,English,Firefox,Windows,768,1024,10.109583333333331,
1099,default,block1,josie,ai,0.39,1247,discover,12,discover,C,[],41,Yes,Thank you.,Male,English,Firefox,Windows,768,1024,10.109583333333331,
1099,default,block1,grace,ai,0.71,1745,prove,13,prove,C,[],41,Yes,Thank you.,Male,English,Firefox,Windows,768,1024,10.109583333333331,
1099,default,block1,ballet,ai,0.36,1640,MC,14,MC,MC,[],41,Yes,Thank you.,Male,English,Firefox,Windows,768,1024,10.109583333333331,
1099,default,block1,jackson,ai,0.71,1664,suggest,15,suggest,C,[],41,Yes,Thank you.,Male,English,Firefox,Windows,768,1024,10.109583333333331,
1099,default,block1,julian,ai,0.38,1383,think,16,think,C,[],41,Yes,Thank you.,Male,English,Firefox,Windows,768,1024,10.109583333333331,
1099,default,block1,hat,ai,0.6,1865,MC,17,MC,MC,[],41,Yes,Thank you.,Male,English,Firefox,Windows,768,1024,10.109583333333331,
1099,default,block1,mary,ai,0.31,1520,admit,18,admit,C,[],41,Yes,Thank you.,Male,English,Firefox,Windows,768,1024,10.109583333333331,
1099,default,block1,charley,ai,0.68,1375,confess,19,confess,C,[],41,Yes,Thank you.,Male,English,Firefox,Windows,768,1024,10.109583333333331,
1099,default,block1,josh,ai,0.34,937,pretend,20,pretend,C,[],41,Yes,Thank you.,Male,English,Firefox,Windows,768,1024,10.109583333333331,
1099,default,block1,garage,ai,0.65,1312,MC,21,MC,MC,[],41,Yes,Thank you.,Male,English,Firefox,Windows,768,1024,10.109583333333331,
1099,default,block1,emily,ai,0.37,1663,establish,22,establish,C,[],41,Yes,Thank you.,Male,English,Firefox,Windows,768,1024,10.109583333333331,
1099,default,block1,frank,ai,0.67,1465,demonstrate,23,demonstrate,C,[],41,Yes,Thank you.,Male,English,Firefox,Windows,768,1024,10.109583333333331,
1099,default,block1,kids,ai,0.38,1025,MC,24,MC,MC,[],41,Yes,Thank you.,Male,English,Firefox,Windows,768,1024,10.109583333333331,
1099,default,block1,pizza,ai,0.65,1024,MC,25,MC,MC,[],41,Yes,Thank you.,Male,English,Firefox,Windows,768,1024,10.109583333333331,
1099,default,block1,owen,ai,0.37,1334,confirm,26,confirm,C,[],41,Yes,Thank you.,Male,English,Firefox,Windows,768,1024,10.109583333333331,
1099,default,block1,tony,ai,0.66,1921,say,27,say,C,[],41,Yes,Thank you.,Male,English,Firefox,Windows,768,1024,10.109583333333331,
1099,default,block1,emma,ai,0.39,2416,inform,28,inform,C,[],41,Yes,Thank you.,Male,English,Firefox,Windows,768,1024,10.109583333333331,
1099,default,block1,danny,ai,0.65,1464,be_annoyed,29,be_annoyed,C,[],41,Yes,Thank you.,Male,English,Firefox,Windows,768,1024,10.109583333333331,
1099,default,block1,muffins,ai,0.39,1711,MC,30,MC,MC,[],41,Yes,Thank you.,Male,English,Firefox,Windows,768,1024,10.109583333333331,
1099,default,block2,muffins,projective,0.36,2160,MC,32,MC,MC,[],41,Yes,Thank you.,Male,English,Firefox,Windows,768,1024,10.109583333333331,
1099,default,block2,kids,projective,0.7,1495,MC,33,MC,MC,[],41,Yes,Thank you.,Male,English,Firefox,Windows,768,1024,10.109583333333331,
1099,default,block2,josh,projective,0.51,62888,pretend,34,pretend,C,[],41,Yes,Thank you.,Male,English,Firefox,Windows,768,1024,10.109583333333331,
1099,default,block2,frank,projective,0.72,1456,demonstrate,35,demonstrate,C,[],41,Yes,Thank you.,Male,English,Firefox,Windows,768,1024,10.109583333333331,
1099,default,block2,grace,projective,0.33,1216,prove,36,prove,C,[],41,Yes,Thank you.,Male,English,Firefox,Windows,768,1024,10.109583333333331,
1099,default,block2,sophia,projective,0.64,1960,reveal,37,reveal,C,[],41,Yes,Thank you.,Male,English,Firefox,Windows,768,1024,10.109583333333331,
1099,default,block2,jon,projective,0.39,1560,announce,38,announce,C,[],41,Yes,Thank you.,Male,English,Firefox,Windows,768,1024,10.109583333333331,
1099,default,block2,ballet,projective,0.43,14576,MC,39,MC,MC,[],41,Yes,Thank you.,Male,English,Firefox,Windows,768,1024,10.109583333333331,
1099,default,block2,zoe,projective,0.7,2416,see,40,see,C,[],41,Yes,Thank you.,Male,English,Firefox,Windows,768,1024,10.109583333333331,
1099,default,block2,danny,projective,0.42,1872,be_annoyed,41,be_annoyed,C,[],41,Yes,Thank you.,Male,English,Firefox,Windows,768,1024,10.109583333333331,
1099,default,block2,mary,projective,0.67,1393,admit,42,admit,C,[],41,Yes,Thank you.,Male,English,Firefox,Windows,768,1024,10.109583333333331,
1099,default,block2,owen,projective,0.37,1415,confirm,43,confirm,C,[],41,Yes,Thank you.,Male,English,Firefox,Windows,768,1024,10.109583333333331,
1099,default,block2,isabella,projective,0.57,1472,be_right,44,be_right,C,[],41,Yes,Thank you.,Male,English,Firefox,Windows,768,1024,10.109583333333331,
1099,default,block2,hat,projective,0.34,1383,MC,45,MC,MC,[],41,Yes,Thank you.,Male,English,Firefox,Windows,768,1024,10.109583333333331,
1099,default,block2,julian,projective,0.63,2385,think,46,think,C,[],41,Yes,Thank you.,Male,English,Firefox,Windows,768,1024,10.109583333333331,
1099,default,block2,josie,projective,0.39,1224,discover,47,discover,C,[],41,Yes,Thank you.,Male,English,Firefox,Windows,768,1024,10.109583333333331,
1099,default,block2,pizza,projective,0.64,1481,MC,48,MC,MC,[],41,Yes,Thank you.,Male,English,Firefox,Windows,768,1024,10.109583333333331,
1099,default,block2,charley,projective,0.39,2239,confess,49,confess,C,[],41,Yes,Thank you.,Male,English,Firefox,Windows,768,1024,10.109583333333331,
1099,default,block2,emma,projective,0.66,1248,inform,50,inform,C,[],41,Yes,Thank you.,Male,English,Firefox,Windows,768,1024,10.109583333333331,
1099,default,block2,emily,projective,0.36,2295,establish,51,establish,C,[],41,Yes,Thank you.,Male,English,Firefox,Windows,768,1024,10.109583333333331,
1099,default,block2,garage,projective,0.62,1208,MC,52,MC,MC,[],41,Yes,Thank you.,Male,English,Firefox,Windows,768,1024,10.109583333333331,
1099,default,block2,jackson,projective,0.36,1031,suggest,53,suggest,C,[],41,Yes,Thank you.,Male,English,Firefox,Windows,768,1024,10.109583333333331,
1099,default,block2,mia,projective,0.69,1001,hear,54,hear,C,[],41,Yes,Thank you.,Male,English,Firefox,Windows,768,1024,10.109583333333331,
1099,default,block2,tony,projective,0.4,1055,say,55,say,C,[],41,Yes,Thank you.,Male,English,Firefox,Windows,768,1024,10.109583333333331,
1099,default,block2,olivia,projective,0.39,944,know,56,know,C,[],41,Yes,Thank you.,Male,English,Firefox,Windows,768,1024,10.109583333333331,
1099,default,block2,jayden,projective,0.6,1304,acknowledge,57,acknowledge,C,[],41,Yes,Thank you.,Male,English,Firefox,Windows,768,1024,10.109583333333331,
1108,default,block1,owen,projective,0.73,4623,know,5,know,C,[],42,Yes,beautiful,Male,einglish,Firefox,Windows,900,1600,7.81665,
1108,default,block1,mia,projective,0.68,3111,inform,6,inform,C,[],42,Yes,beautiful,Male,einglish,Firefox,Windows,900,1600,7.81665,
1108,default,block1,emily,projective,0.26,3928,discover,7,discover,C,[],42,Yes,beautiful,Male,einglish,Firefox,Windows,900,1600,7.81665,
1108,default,block1,ballet,projective,0.83,2272,MC,8,MC,MC,[],42,Yes,beautiful,Male,einglish,Firefox,Windows,900,1600,7.81665,
1108,default,block1,sophia,projective,0.81,27808,hear,9,hear,C,[],42,Yes,beautiful,Male,einglish,Firefox,Windows,900,1600,7.81665,
1108,default,block1,josh,projective,0.77,1688,be_annoyed,10,be_annoyed,C,[],42,Yes,beautiful,Male,einglish,Firefox,Windows,900,1600,7.81665,
1108,default,block1,pizza,projective,0.14,1528,MC,11,MC,MC,[],42,Yes,beautiful,Male,einglish,Firefox,Windows,900,1600,7.81665,
1108,default,block1,emma,projective,0.83,1744,confirm,12,confirm,C,[],42,Yes,beautiful,Male,einglish,Firefox,Windows,900,1600,7.81665,
1108,default,block1,danny,projective,0.89,1559,confess,13,confess,C,[],42,Yes,beautiful,Male,einglish,Firefox,Windows,900,1600,7.81665,
1108,default,block1,zoe,projective,0.07,1991,think,14,think,C,[],42,Yes,beautiful,Male,einglish,Firefox,Windows,900,1600,7.81665,
1108,default,block1,isabella,projective,0.84,10288,be_right,15,be_right,C,[],42,Yes,beautiful,Male,einglish,Firefox,Windows,900,1600,7.81665,
1108,default,block1,tony,projective,0.83,2368,suggest,16,suggest,C,[],42,Yes,beautiful,Male,einglish,Firefox,Windows,900,1600,7.81665,
1108,default,block1,olivia,projective,0.12,3880,say,17,say,C,[],42,Yes,beautiful,Male,einglish,Firefox,Windows,900,1600,7.81665,
1108,default,block1,josie,projective,0.14,7111,admit,18,admit,C,[],42,Yes,beautiful,Male,einglish,Firefox,Windows,900,1600,7.81665,
1108,default,block1,hat,projective,0.13,4184,MC,19,MC,MC,[],42,Yes,beautiful,Male,einglish,Firefox,Windows,900,1600,7.81665,
1108,default,block1,muffins,projective,0.87,1543,MC,20,MC,MC,[],42,Yes,beautiful,Male,einglish,Firefox,Windows,900,1600,7.81665,
1108,default,block1,charley,projective,0.85,1568,prove,21,prove,C,[],42,Yes,beautiful,Male,einglish,Firefox,Windows,900,1600,7.81665,
1108,default,block1,jayden,projective,0.82,2136,announce,22,announce,C,[],42,Yes,beautiful,Male,einglish,Firefox,Windows,900,1600,7.81665,
1108,default,block1,grace,projective,0.13,1456,pretend,23,pretend,C,[],42,Yes,beautiful,Male,einglish,Firefox,Windows,900,1600,7.81665,
1108,default,block1,julian,projective,0.9,1392,demonstrate,24,demonstrate,C,[],42,Yes,beautiful,Male,einglish,Firefox,Windows,900,1600,7.81665,
1108,default,block1,jon,projective,0.82,1144,see,25,see,C,[],42,Yes,beautiful,Male,einglish,Firefox,Windows,900,1600,7.81665,
1108,default,block1,kids,projective,0.77,1144,MC,26,MC,MC,[],42,Yes,beautiful,Male,einglish,Firefox,Windows,900,1600,7.81665,
1108,default,block1,frank,projective,0.79,1223,acknowledge,27,acknowledge,C,[],42,Yes,beautiful,Male,einglish,Firefox,Windows,900,1600,7.81665,
1108,default,block1,garage,projective,0.1,1272,MC,28,MC,MC,[],42,Yes,beautiful,Male,einglish,Firefox,Windows,900,1600,7.81665,
1108,default,block1,mary,projective,0.83,1088,reveal,29,reveal,C,[],42,Yes,beautiful,Male,einglish,Firefox,Windows,900,1600,7.81665,
1108,default,block1,jackson,projective,0.8,1128,establish,30,establish,C,[],42,Yes,beautiful,Male,einglish,Firefox,Windows,900,1600,7.81665,
1108,default,block2,frank,ai,0.87,1903,acknowledge,32,acknowledge,C,[],42,Yes,beautiful,Male,einglish,Firefox,Windows,900,1600,7.81665,
1108,default,block2,tony,ai,0.89,1560,suggest,33,suggest,C,[],42,Yes,beautiful,Male,einglish,Firefox,Windows,900,1600,7.81665,
1108,default,block2,jackson,ai,0.85,2200,establish,34,establish,C,[],42,Yes,beautiful,Male,einglish,Firefox,Windows,900,1600,7.81665,
1108,default,block2,hat,ai,0.17,1567,MC,35,MC,MC,[],42,Yes,beautiful,Male,einglish,Firefox,Windows,900,1600,7.81665,
1108,default,block2,olivia,ai,0.92,2024,say,36,say,C,[],42,Yes,beautiful,Male,einglish,Firefox,Windows,900,1600,7.81665,
1108,default,block2,emily,ai,0.12,1351,discover,37,discover,C,[],42,Yes,beautiful,Male,einglish,Firefox,Windows,900,1600,7.81665,
1108,default,block2,garage,ai,0.91,1329,MC,38,MC,MC,[],42,Yes,beautiful,Male,einglish,Firefox,Windows,900,1600,7.81665,
1108,default,block2,mary,ai,0.84,1919,reveal,39,reveal,C,[],42,Yes,beautiful,Male,einglish,Firefox,Windows,900,1600,7.81665,
1108,default,block2,jon,ai,0.13,1720,see,40,see,C,[],42,Yes,beautiful,Male,einglish,Firefox,Windows,900,1600,7.81665,
1108,default,block2,isabella,ai,0.86,1489,be_right,41,be_right,C,[],42,Yes,beautiful,Male,einglish,Firefox,Windows,900,1600,7.81665,
1108,default,block2,josie,ai,0.14,1951,admit,42,admit,C,[],42,Yes,beautiful,Male,einglish,Firefox,Windows,900,1600,7.81665,
1108,default,block2,ballet,ai,0.87,1384,MC,43,MC,MC,[],42,Yes,beautiful,Male,einglish,Firefox,Windows,900,1600,7.81665,
1108,default,block2,pizza,ai,0.79,1992,MC,44,MC,MC,[],42,Yes,beautiful,Male,einglish,Firefox,Windows,900,1600,7.81665,
1108,default,block2,kids,ai,0.19,2552,MC,45,MC,MC,[],42,Yes,beautiful,Male,einglish,Firefox,Windows,900,1600,7.81665,
1108,default,block2,julian,ai,0.87,1936,demonstrate,46,demonstrate,C,[],42,Yes,beautiful,Male,einglish,Firefox,Windows,900,1600,7.81665,
1108,default,block2,muffins,ai,0.14,1776,MC,47,MC,MC,[],42,Yes,beautiful,Male,einglish,Firefox,Windows,900,1600,7.81665,
1108,default,block2,emma,ai,0.79,2192,confirm,48,confirm,C,[],42,Yes,beautiful,Male,einglish,Firefox,Windows,900,1600,7.81665,
1108,default,block2,charley,ai,0.78,1888,prove,49,prove,C,[],42,Yes,beautiful,Male,einglish,Firefox,Windows,900,1600,7.81665,
1108,default,block2,josh,ai,0.42,1335,be_annoyed,50,be_annoyed,C,[],42,Yes,beautiful,Male,einglish,Firefox,Windows,900,1600,7.81665,
1108,default,block2,owen,ai,0.88,2625,know,51,know,C,[],42,Yes,beautiful,Male,einglish,Firefox,Windows,900,1600,7.81665,
1108,default,block2,mia,ai,0.86,3344,inform,52,inform,C,[],42,Yes,beautiful,Male,einglish,Firefox,Windows,900,1600,7.81665,
1108,default,block2,jayden,ai,0.89,2055,announce,53,announce,C,[],42,Yes,beautiful,Male,einglish,Firefox,Windows,900,1600,7.81665,
1108,default,block2,danny,ai,0.13,1784,confess,54,confess,C,[],42,Yes,beautiful,Male,einglish,Firefox,Windows,900,1600,7.81665,
1108,default,block2,sophia,ai,0.83,1520,hear,55,hear,C,[],42,Yes,beautiful,Male,einglish,Firefox,Windows,900,1600,7.81665,
1108,default,block2,zoe,ai,0.88,1936,think,56,think,C,[],42,Yes,beautiful,Male,einglish,Firefox,Windows,900,1600,7.81665,
1108,default,block2,grace,ai,0.13,2280,pretend,57,pretend,C,[],42,Yes,beautiful,Male,einglish,Firefox,Windows,900,1600,7.81665,
1102,default,block1,jon,ai,0.01,13693,know,5,know,C,[],22,Yes,,Female,English,Chrome,Windows,912,1368,8.397,
1102,default,block1,mary,ai,0.03,7963,reveal,6,reveal,C,[],22,Yes,,Female,English,Chrome,Windows,912,1368,8.397,
1102,default,block1,ballet,ai,0.48,11197,MC,7,MC,MC,[],22,Yes,,Female,English,Chrome,Windows,912,1368,8.397,
1102,default,block1,owen,ai,0.02,13703,inform,8,inform,C,[],22,Yes,,Female,English,Chrome,Windows,912,1368,8.397,
1102,default,block1,tony,ai,0.03,10811,be_annoyed,9,be_annoyed,C,[],22,Yes,,Female,English,Chrome,Windows,912,1368,8.397,
1102,default,block1,danny,ai,0,10101,prove,10,prove,C,[],22,Yes,,Female,English,Chrome,Windows,912,1368,8.397,
1102,default,block1,emily,ai,0.29,9642,discover,11,discover,C,[],22,Yes,,Female,English,Chrome,Windows,912,1368,8.397,
1102,default,block1,zoe,ai,0.23,8317,demonstrate,12,demonstrate,C,[],22,Yes,,Female,English,Chrome,Windows,912,1368,8.397,
1102,default,block1,grace,ai,0.03,8105,think,13,think,C,[],22,Yes,,Female,English,Chrome,Windows,912,1368,8.397,
1102,default,block1,josh,ai,0.2,7450,confirm,14,confirm,C,[],22,Yes,,Female,English,Chrome,Windows,912,1368,8.397,
1102,default,block1,sophia,ai,0.77,9323,pretend,15,pretend,C,[],22,Yes,,Female,English,Chrome,Windows,912,1368,8.397,
1102,default,block1,emma,ai,0.06,8754,establish,16,establish,C,[],22,Yes,,Female,English,Chrome,Windows,912,1368,8.397,
1102,default,block1,hat,ai,0.32,9200,MC,17,MC,MC,[],22,Yes,,Female,English,Chrome,Windows,912,1368,8.397,
1102,default,block1,kids,ai,0.02,9100,MC,18,MC,MC,[],22,Yes,,Female,English,Chrome,Windows,912,1368,8.397,
1102,default,block1,jayden,ai,0.02,8493,say,19,say,C,[],22,Yes,,Female,English,Chrome,Windows,912,1368,8.397,
1102,default,block1,pizza,ai,0.26,9265,MC,20,MC,MC,[],22,Yes,,Female,English,Chrome,Windows,912,1368,8.397,
1102,default,block1,charley,ai,0.02,11926,be_right,21,be_right,C,[],22,Yes,,Female,English,Chrome,Windows,912,1368,8.397,
1102,default,block1,mia,ai,0.14,7905,confess,22,confess,C,[],22,Yes,,Female,English,Chrome,Windows,912,1368,8.397,
1102,default,block1,josie,ai,0.15,13998,acknowledge,23,acknowledge,C,[],22,Yes,,Female,English,Chrome,Windows,912,1368,8.397,
1102,default,block1,olivia,ai,0.18,6846,admit,24,admit,C,[],22,Yes,,Female,English,Chrome,Windows,912,1368,8.397,
1102,default,block1,frank,ai,0.18,7680,hear,25,hear,C,[],22,Yes,,Female,English,Chrome,Windows,912,1368,8.397,
1102,default,block1,julian,ai,0.06,4859,announce,26,announce,C,[],22,Yes,,Female,English,Chrome,Windows,912,1368,8.397,
1102,default,block1,jackson,ai,0.21,4052,see,27,see,C,[],22,Yes,,Female,English,Chrome,Windows,912,1368,8.397,
1102,default,block1,muffins,ai,0.15,6316,MC,28,MC,MC,[],22,Yes,,Female,English,Chrome,Windows,912,1368,8.397,
1102,default,block1,isabella,ai,0.17,8416,suggest,29,suggest,C,[],22,Yes,,Female,English,Chrome,Windows,912,1368,8.397,
1102,default,block1,garage,ai,0.2,10900,MC,30,MC,MC,[],22,Yes,,Female,English,Chrome,Windows,912,1368,8.397,
1102,default,block2,jon,projective,0.04,11414,know,32,know,C,[],22,Yes,,Female,English,Chrome,Windows,912,1368,8.397,
1102,default,block2,pizza,projective,0.96,7374,MC,33,MC,MC,[],22,Yes,,Female,English,Chrome,Windows,912,1368,8.397,
1102,default,block2,garage,projective,0.97,7203,MC,34,MC,MC,[],22,Yes,,Female,English,Chrome,Windows,912,1368,8.397,
1102,default,block2,josh,projective,0.02,13788,confirm,35,confirm,C,[],22,Yes,,Female,English,Chrome,Windows,912,1368,8.397,
1102,default,block2,julian,projective,0.41,7979,announce,36,announce,C,[],22,Yes,,Female,English,Chrome,Windows,912,1368,8.397,
1102,default,block2,mia,projective,0.48,9861,confess,37,confess,C,[],22,Yes,,Female,English,Chrome,Windows,912,1368,8.397,
1102,default,block2,jackson,projective,0.23,5197,see,38,see,C,[],22,Yes,,Female,English,Chrome,Windows,912,1368,8.397,
1102,default,block2,tony,projective,0.82,5951,be_annoyed,39,be_annoyed,C,[],22,Yes,,Female,English,Chrome,Windows,912,1368,8.397,
1102,default,block2,frank,projective,0.72,4669,hear,40,hear,C,[],22,Yes,,Female,English,Chrome,Windows,912,1368,8.397,
1102,default,block2,emily,projective,0.68,8373,discover,41,discover,C,[],22,Yes,,Female,English,Chrome,Windows,912,1368,8.397,
1102,default,block2,jayden,projective,0.12,7066,say,42,say,C,[],22,Yes,,Female,English,Chrome,Windows,912,1368,8.397,
1102,default,block2,sophia,projective,0.18,7607,pretend,43,pretend,C,[],22,Yes,,Female,English,Chrome,Windows,912,1368,8.397,
1102,default,block2,danny,projective,0.1,5724,prove,44,prove,C,[],22,Yes,,Female,English,Chrome,Windows,912,1368,8.397,
1102,default,block2,muffins,projective,0.97,4790,MC,45,MC,MC,[],22,Yes,,Female,English,Chrome,Windows,912,1368,8.397,
1102,default,block2,grace,projective,0.49,10134,think,46,think,C,[],22,Yes,,Female,English,Chrome,Windows,912,1368,8.397,
1102,default,block2,owen,projective,0.82,6797,inform,47,inform,C,[],22,Yes,,Female,English,Chrome,Windows,912,1368,8.397,
1102,default,block2,olivia,projective,0.69,6615,admit,48,admit,C,[],22,Yes,,Female,English,Chrome,Windows,912,1368,8.397,
1102,default,block2,ballet,projective,0.97,5477,MC,49,MC,MC,[],22,Yes,,Female,English,Chrome,Windows,912,1368,8.397,
1102,default,block2,charley,projective,0.04,8158,be_right,50,be_right,C,[],22,Yes,,Female,English,Chrome,Windows,912,1368,8.397,
1102,default,block2,mary,projective,0.82,5380,reveal,51,reveal,C,[],22,Yes,,Female,English,Chrome,Windows,912,1368,8.397,
1102,default,block2,hat,projective,0.98,6968,MC,52,MC,MC,[],22,Yes,,Female,English,Chrome,Windows,912,1368,8.397,
1102,default,block2,emma,projective,0.37,6983,establish,53,establish,C,[],22,Yes,,Female,English,Chrome,Windows,912,1368,8.397,
1102,default,block2,josie,projective,0.71,4780,acknowledge,54,acknowledge,C,[],22,Yes,,Female,English,Chrome,Windows,912,1368,8.397,
1102,default,block2,zoe,projective,0.17,6053,demonstrate,55,demonstrate,C,[],22,Yes,,Female,English,Chrome,Windows,912,1368,8.397,
1102,default,block2,kids,projective,0.97,7281,MC,56,MC,MC,[],22,Yes,,Female,English,Chrome,Windows,912,1368,8.397,
1102,default,block2,isabella,projective,0.02,10965,suggest,57,suggest,C,[],22,Yes,,Female,English,Chrome,Windows,912,1368,8.397,
1100,default,block1,muffins,ai,0,24217,MC,5,MC,MC,[],24,Yes,"I wasn't sure what ""good"" meant. Like what was ""good"" about the statements. I was getting pretty confused in the first part. ",Female,"Spanish, English",Chrome,Windows,864,1536,16.876216666666668,
1100,default,block1,josh,ai,0.03,23956,prove,6,prove,C,[],24,Yes,"I wasn't sure what ""good"" meant. Like what was ""good"" about the statements. I was getting pretty confused in the first part. ",Female,"Spanish, English",Chrome,Windows,864,1536,16.876216666666668,
1100,default,block1,danny,ai,0.01,11933,be_right,7,be_right,C,[],24,Yes,"I wasn't sure what ""good"" meant. Like what was ""good"" about the statements. I was getting pretty confused in the first part. ",Female,"Spanish, English",Chrome,Windows,864,1536,16.876216666666668,
1100,default,block1,mary,ai,0.01,10162,announce,8,announce,C,[],24,Yes,"I wasn't sure what ""good"" meant. Like what was ""good"" about the statements. I was getting pretty confused in the first part. ",Female,"Spanish, English",Chrome,Windows,864,1536,16.876216666666668,
1100,default,block1,grace,ai,0.02,10904,admit,9,admit,C,[],24,Yes,"I wasn't sure what ""good"" meant. Like what was ""good"" about the statements. I was getting pretty confused in the first part. ",Female,"Spanish, English",Chrome,Windows,864,1536,16.876216666666668,
1100,default,block1,jackson,ai,0.02,11858,suggest,10,suggest,C,[],24,Yes,"I wasn't sure what ""good"" meant. Like what was ""good"" about the statements. I was getting pretty confused in the first part. ",Female,"Spanish, English",Chrome,Windows,864,1536,16.876216666666668,
1100,default,block1,mia,ai,0.03,28726,be_annoyed,11,be_annoyed,C,[],24,Yes,"I wasn't sure what ""good"" meant. Like what was ""good"" about the statements. I was getting pretty confused in the first part. ",Female,"Spanish, English",Chrome,Windows,864,1536,16.876216666666668,
1100,default,block1,owen,ai,0.01,12878,say,12,say,C,[],24,Yes,"I wasn't sure what ""good"" meant. Like what was ""good"" about the statements. I was getting pretty confused in the first part. ",Female,"Spanish, English",Chrome,Windows,864,1536,16.876216666666668,
1100,default,block1,julian,ai,0,12960,hear,13,hear,C,[],24,Yes,"I wasn't sure what ""good"" meant. Like what was ""good"" about the statements. I was getting pretty confused in the first part. ",Female,"Spanish, English",Chrome,Windows,864,1536,16.876216666666668,
1100,default,block1,jayden,ai,0.03,49854,inform,14,inform,C,[],24,Yes,"I wasn't sure what ""good"" meant. Like what was ""good"" about the statements. I was getting pretty confused in the first part. ",Female,"Spanish, English",Chrome,Windows,864,1536,16.876216666666668,
1100,default,block1,hat,ai,0.02,10628,MC,15,MC,MC,[],24,Yes,"I wasn't sure what ""good"" meant. Like what was ""good"" about the statements. I was getting pretty confused in the first part. ",Female,"Spanish, English",Chrome,Windows,864,1536,16.876216666666668,
1100,default,block1,isabella,ai,0.02,19725,confess,16,confess,C,[],24,Yes,"I wasn't sure what ""good"" meant. Like what was ""good"" about the statements. I was getting pretty confused in the first part. ",Female,"Spanish, English",Chrome,Windows,864,1536,16.876216666666668,
1100,default,block1,jon,ai,0.02,11280,acknowledge,17,acknowledge,C,[],24,Yes,"I wasn't sure what ""good"" meant. Like what was ""good"" about the statements. I was getting pretty confused in the first part. ",Female,"Spanish, English",Chrome,Windows,864,1536,16.876216666666668,
1100,default,block1,kids,ai,0.49,22036,MC,18,MC,MC,[],24,Yes,"I wasn't sure what ""good"" meant. Like what was ""good"" about the statements. I was getting pretty confused in the first part. ",Female,"Spanish, English",Chrome,Windows,864,1536,16.876216666666668,
1100,default,block1,emma,ai,0.02,18810,discover,19,discover,C,[],24,Yes,"I wasn't sure what ""good"" meant. Like what was ""good"" about the statements. I was getting pretty confused in the first part. ",Female,"Spanish, English",Chrome,Windows,864,1536,16.876216666666668,
1100,default,block1,sophia,ai,0.05,12930,demonstrate,20,demonstrate,C,[],24,Yes,"I wasn't sure what ""good"" meant. Like what was ""good"" about the statements. I was getting pretty confused in the first part. ",Female,"Spanish, English",Chrome,Windows,864,1536,16.876216666666668,
1100,default,block1,pizza,ai,0.07,13425,MC,21,MC,MC,[],24,Yes,"I wasn't sure what ""good"" meant. Like what was ""good"" about the statements. I was getting pretty confused in the first part. ",Female,"Spanish, English",Chrome,Windows,864,1536,16.876216666666668,
1100,default,block1,olivia,ai,0.07,26573,see,22,see,C,[],24,Yes,"I wasn't sure what ""good"" meant. Like what was ""good"" about the statements. I was getting pretty confused in the first part. ",Female,"Spanish, English",Chrome,Windows,864,1536,16.876216666666668,
1100,default,block1,charley,ai,0.08,16664,confirm,23,confirm,C,[],24,Yes,"I wasn't sure what ""good"" meant. Like what was ""good"" about the statements. I was getting pretty confused in the first part. ",Female,"Spanish, English",Chrome,Windows,864,1536,16.876216666666668,
1100,default,block1,garage,ai,0.1,12862,MC,24,MC,MC,[],24,Yes,"I wasn't sure what ""good"" meant. Like what was ""good"" about the statements. I was getting pretty confused in the first part. ",Female,"Spanish, English",Chrome,Windows,864,1536,16.876216666666668,
1100,default,block1,zoe,ai,0.2,35934,pretend,25,pretend,C,[],24,Yes,"I wasn't sure what ""good"" meant. Like what was ""good"" about the statements. I was getting pretty confused in the first part. ",Female,"Spanish, English",Chrome,Windows,864,1536,16.876216666666668,
1100,default,block1,ballet,ai,0.13,22020,MC,26,MC,MC,[],24,Yes,"I wasn't sure what ""good"" meant. Like what was ""good"" about the statements. I was getting pretty confused in the first part. ",Female,"Spanish, English",Chrome,Windows,864,1536,16.876216666666668,
1100,default,block1,frank,ai,0.12,29130,establish,27,establish,C,[],24,Yes,"I wasn't sure what ""good"" meant. Like what was ""good"" about the statements. I was getting pretty confused in the first part. ",Female,"Spanish, English",Chrome,Windows,864,1536,16.876216666666668,
1100,default,block1,josie,ai,0.21,26176,reveal,28,reveal,C,[],24,Yes,"I wasn't sure what ""good"" meant. Like what was ""good"" about the statements. I was getting pretty confused in the first part. ",Female,"Spanish, English",Chrome,Windows,864,1536,16.876216666666668,
1100,default,block1,emily,ai,0.17,20857,know,29,know,C,[],24,Yes,"I wasn't sure what ""good"" meant. Like what was ""good"" about the statements. I was getting pretty confused in the first part. ",Female,"Spanish, English",Chrome,Windows,864,1536,16.876216666666668,
1100,default,block1,tony,ai,0.17,10920,think,30,think,C,[],24,Yes,"I wasn't sure what ""good"" meant. Like what was ""good"" about the statements. I was getting pretty confused in the first part. ",Female,"Spanish, English",Chrome,Windows,864,1536,16.876216666666668,
1100,default,block2,emma,projective,0.67,20310,discover,32,discover,C,[],24,Yes,"I wasn't sure what ""good"" meant. Like what was ""good"" about the statements. I was getting pretty confused in the first part. ",Female,"Spanish, English",Chrome,Windows,864,1536,16.876216666666668,
1100,default,block2,zoe,projective,0.77,15413,pretend,33,pretend,C,[],24,Yes,"I wasn't sure what ""good"" meant. Like what was ""good"" about the statements. I was getting pretty confused in the first part. ",Female,"Spanish, English",Chrome,Windows,864,1536,16.876216666666668,
1100,default,block2,tony,projective,0.84,7883,think,34,think,C,[],24,Yes,"I wasn't sure what ""good"" meant. Like what was ""good"" about the statements. I was getting pretty confused in the first part. ",Female,"Spanish, English",Chrome,Windows,864,1536,16.876216666666668,
1100,default,block2,ballet,projective,0.99,9968,MC,35,MC,MC,[],24,Yes,"I wasn't sure what ""good"" meant. Like what was ""good"" about the statements. I was getting pretty confused in the first part. ",Female,"Spanish, English",Chrome,Windows,864,1536,16.876216666666668,
1100,default,block2,danny,projective,0.58,12690,be_right,36,be_right,C,[],24,Yes,"I wasn't sure what ""good"" meant. Like what was ""good"" about the statements. I was getting pretty confused in the first part. ",Female,"Spanish, English",Chrome,Windows,864,1536,16.876216666666668,
1100,default,block2,josh,projective,0.65,28319,prove,37,prove,C,[],24,Yes,"I wasn't sure what ""good"" meant. Like what was ""good"" about the statements. I was getting pretty confused in the first part. ",Female,"Spanish, English",Chrome,Windows,864,1536,16.876216666666668,
1100,default,block2,garage,projective,0.99,14918,MC,38,MC,MC,[],24,Yes,"I wasn't sure what ""good"" meant. Like what was ""good"" about the statements. I was getting pretty confused in the first part. ",Female,"Spanish, English",Chrome,Windows,864,1536,16.876216666666668,
1100,default,block2,jackson,projective,0.59,18308,suggest,39,suggest,C,[],24,Yes,"I wasn't sure what ""good"" meant. Like what was ""good"" about the statements. I was getting pretty confused in the first part. ",Female,"Spanish, English",Chrome,Windows,864,1536,16.876216666666668,
1100,default,block2,owen,projective,0.32,10103,say,40,say,C,[],24,Yes,"I wasn't sure what ""good"" meant. Like what was ""good"" about the statements. I was getting pretty confused in the first part. ",Female,"Spanish, English",Chrome,Windows,864,1536,16.876216666666668,
1100,default,block2,frank,projective,0.43,9645,establish,41,establish,C,[],24,Yes,"I wasn't sure what ""good"" meant. Like what was ""good"" about the statements. I was getting pretty confused in the first part. ",Female,"Spanish, English",Chrome,Windows,864,1536,16.876216666666668,
1100,default,block2,grace,projective,0.21,12601,admit,42,admit,C,[],24,Yes,"I wasn't sure what ""good"" meant. Like what was ""good"" about the statements. I was getting pretty confused in the first part. ",Female,"Spanish, English",Chrome,Windows,864,1536,16.876216666666668,
1100,default,block2,olivia,projective,0.71,12022,see,43,see,C,[],24,Yes,"I wasn't sure what ""good"" meant. Like what was ""good"" about the statements. I was getting pretty confused in the first part. ",Female,"Spanish, English",Chrome,Windows,864,1536,16.876216666666668,
1100,default,block2,hat,projective,0.99,8093,MC,44,MC,MC,[],24,Yes,"I wasn't sure what ""good"" meant. Like what was ""good"" about the statements. I was getting pretty confused in the first part. ",Female,"Spanish, English",Chrome,Windows,864,1536,16.876216666666668,
1100,default,block2,kids,projective,0.99,10582,MC,45,MC,MC,[],24,Yes,"I wasn't sure what ""good"" meant. Like what was ""good"" about the statements. I was getting pretty confused in the first part. ",Female,"Spanish, English",Chrome,Windows,864,1536,16.876216666666668,
1100,default,block2,jayden,projective,0.46,27151,inform,46,inform,C,[],24,Yes,"I wasn't sure what ""good"" meant. Like what was ""good"" about the statements. I was getting pretty confused in the first part. ",Female,"Spanish, English",Chrome,Windows,864,1536,16.876216666666668,
1100,default,block2,julian,projective,0.5,11806,hear,47,hear,C,[],24,Yes,"I wasn't sure what ""good"" meant. Like what was ""good"" about the statements. I was getting pretty confused in the first part. ",Female,"Spanish, English",Chrome,Windows,864,1536,16.876216666666668,
1100,default,block2,muffins,projective,1,7320,MC,48,MC,MC,[],24,Yes,"I wasn't sure what ""good"" meant. Like what was ""good"" about the statements. I was getting pretty confused in the first part. ",Female,"Spanish, English",Chrome,Windows,864,1536,16.876216666666668,
1100,default,block2,mia,projective,0.93,7717,be_annoyed,49,be_annoyed,C,[],24,Yes,"I wasn't sure what ""good"" meant. Like what was ""good"" about the statements. I was getting pretty confused in the first part. ",Female,"Spanish, English",Chrome,Windows,864,1536,16.876216666666668,
1100,default,block2,emily,projective,0.93,13650,know,50,know,C,[],24,Yes,"I wasn't sure what ""good"" meant. Like what was ""good"" about the statements. I was getting pretty confused in the first part. ",Female,"Spanish, English",Chrome,Windows,864,1536,16.876216666666668,
1100,default,block2,isabella,projective,0.99,25223,confess,51,confess,C,[],24,Yes,"I wasn't sure what ""good"" meant. Like what was ""good"" about the statements. I was getting pretty confused in the first part. ",Female,"Spanish, English",Chrome,Windows,864,1536,16.876216666666668,
1100,default,block2,jon,projective,0.97,8183,acknowledge,52,acknowledge,C,[],24,Yes,"I wasn't sure what ""good"" meant. Like what was ""good"" about the statements. I was getting pretty confused in the first part. ",Female,"Spanish, English",Chrome,Windows,864,1536,16.876216666666668,
1100,default,block2,pizza,projective,1,8145,MC,53,MC,MC,[],24,Yes,"I wasn't sure what ""good"" meant. Like what was ""good"" about the statements. I was getting pretty confused in the first part. ",Female,"Spanish, English",Chrome,Windows,864,1536,16.876216666666668,
1100,default,block2,charley,projective,0.18,9997,confirm,54,confirm,C,[],24,Yes,"I wasn't sure what ""good"" meant. Like what was ""good"" about the statements. I was getting pretty confused in the first part. ",Female,"Spanish, English",Chrome,Windows,864,1536,16.876216666666668,
1100,default,block2,josie,projective,0.23,9510,reveal,55,reveal,C,[],24,Yes,"I wasn't sure what ""good"" meant. Like what was ""good"" about the statements. I was getting pretty confused in the first part. ",Female,"Spanish, English",Chrome,Windows,864,1536,16.876216666666668,
1100,default,block2,sophia,projective,0.15,9601,demonstrate,56,demonstrate,C,[],24,Yes,"I wasn't sure what ""good"" meant. Like what was ""good"" about the statements. I was getting pretty confused in the first part. ",Female,"Spanish, English",Chrome,Windows,864,1536,16.876216666666668,
1100,default,block2,mary,projective,0.23,7169,announce,57,announce,C,[],24,Yes,"I wasn't sure what ""good"" meant. Like what was ""good"" about the statements. I was getting pretty confused in the first part. ",Female,"Spanish, English",Chrome,Windows,864,1536,16.876216666666668,
1103,default,block1,jayden,ai,0.17,19428,know,5,know,C,[],22,Yes,It was tricky to know how to scale some of those sentences unless I spoke them out loud.,Female,English ,Chrome,Mac,900,1440,9.439416666666666,
1103,default,block1,jon,ai,0.42,14003,suggest,6,suggest,C,[],22,Yes,It was tricky to know how to scale some of those sentences unless I spoke them out loud.,Female,English ,Chrome,Mac,900,1440,9.439416666666666,
1103,default,block1,mia,ai,0.05,10243,prove,7,prove,C,[],22,Yes,It was tricky to know how to scale some of those sentences unless I spoke them out loud.,Female,English ,Chrome,Mac,900,1440,9.439416666666666,
1103,default,block1,mary,ai,0.53,11931,pretend,8,pretend,C,[],22,Yes,It was tricky to know how to scale some of those sentences unless I spoke them out loud.,Female,English ,Chrome,Mac,900,1440,9.439416666666666,
1103,default,block1,charley,ai,0.13,7251,admit,9,admit,C,[],22,Yes,It was tricky to know how to scale some of those sentences unless I spoke them out loud.,Female,English ,Chrome,Mac,900,1440,9.439416666666666,
1103,default,block1,ballet,ai,0.69,9246,MC,10,MC,MC,[],22,Yes,It was tricky to know how to scale some of those sentences unless I spoke them out loud.,Female,English ,Chrome,Mac,900,1440,9.439416666666666,
1103,default,block1,tony,ai,0.25,10949,announce,11,announce,C,[],22,Yes,It was tricky to know how to scale some of those sentences unless I spoke them out loud.,Female,English ,Chrome,Mac,900,1440,9.439416666666666,
1103,default,block1,pizza,ai,0.77,5992,MC,12,MC,MC,[],22,Yes,It was tricky to know how to scale some of those sentences unless I spoke them out loud.,Female,English ,Chrome,Mac,900,1440,9.439416666666666,
1103,default,block1,olivia,ai,0.22,4949,discover,13,discover,C,[],22,Yes,It was tricky to know how to scale some of those sentences unless I spoke them out loud.,Female,English ,Chrome,Mac,900,1440,9.439416666666666,
1103,default,block1,danny,ai,0.25,5636,confess,14,confess,C,[],22,Yes,It was tricky to know how to scale some of those sentences unless I spoke them out loud.,Female,English ,Chrome,Mac,900,1440,9.439416666666666,
1103,default,block1,owen,ai,0.86,10200,think,15,think,C,[],22,Yes,It was tricky to know how to scale some of those sentences unless I spoke them out loud.,Female,English ,Chrome,Mac,900,1440,9.439416666666666,
1103,default,block1,jackson,ai,0.14,5254,reveal,16,reveal,C,[],22,Yes,It was tricky to know how to scale some of those sentences unless I spoke them out loud.,Female,English ,Chrome,Mac,900,1440,9.439416666666666,
1103,default,block1,isabella,ai,0.18,8471,confirm,17,confirm,C,[],22,Yes,It was tricky to know how to scale some of those sentences unless I spoke them out loud.,Female,English ,Chrome,Mac,900,1440,9.439416666666666,
1103,default,block1,emily,ai,0.19,14734,establish,18,establish,C,[],22,Yes,It was tricky to know how to scale some of those sentences unless I spoke them out loud.,Female,English ,Chrome,Mac,900,1440,9.439416666666666,
1103,default,block1,josh,ai,0.23,7952,acknowledge,19,acknowledge,C,[],22,Yes,It was tricky to know how to scale some of those sentences unless I spoke them out loud.,Female,English ,Chrome,Mac,900,1440,9.439416666666666,
1103,default,block1,josie,ai,0.26,10000,demonstrate,20,demonstrate,C,[],22,Yes,It was tricky to know how to scale some of those sentences unless I spoke them out loud.,Female,English ,Chrome,Mac,900,1440,9.439416666666666,
1103,default,block1,sophia,ai,0.5,5501,say,21,say,C,[],22,Yes,It was tricky to know how to scale some of those sentences unless I spoke them out loud.,Female,English ,Chrome,Mac,900,1440,9.439416666666666,
1103,default,block1,garage,ai,0.82,6048,MC,22,MC,MC,[],22,Yes,It was tricky to know how to scale some of those sentences unless I spoke them out loud.,Female,English ,Chrome,Mac,900,1440,9.439416666666666,
1103,default,block1,muffins,ai,0.81,4262,MC,23,MC,MC,[],22,Yes,It was tricky to know how to scale some of those sentences unless I spoke them out loud.,Female,English ,Chrome,Mac,900,1440,9.439416666666666,
1103,default,block1,zoe,ai,0.25,6066,hear,24,hear,C,[],22,Yes,It was tricky to know how to scale some of those sentences unless I spoke them out loud.,Female,English ,Chrome,Mac,900,1440,9.439416666666666,
1103,default,block1,emma,ai,0.33,8982,inform,25,inform,C,[],22,Yes,It was tricky to know how to scale some of those sentences unless I spoke them out loud.,Female,English ,Chrome,Mac,900,1440,9.439416666666666,
1103,default,block1,frank,ai,0.17,10229,be_right,26,be_right,C,[],22,Yes,It was tricky to know how to scale some of those sentences unless I spoke them out loud.,Female,English ,Chrome,Mac,900,1440,9.439416666666666,
1103,default,block1,kids,ai,0.76,4926,MC,27,MC,MC,[],22,Yes,It was tricky to know how to scale some of those sentences unless I spoke them out loud.,Female,English ,Chrome,Mac,900,1440,9.439416666666666,
1103,default,block1,hat,ai,0.87,4208,MC,28,MC,MC,[],22,Yes,It was tricky to know how to scale some of those sentences unless I spoke them out loud.,Female,English ,Chrome,Mac,900,1440,9.439416666666666,
1103,default,block1,grace,ai,0.23,5086,see,29,see,C,[],22,Yes,It was tricky to know how to scale some of those sentences unless I spoke them out loud.,Female,English ,Chrome,Mac,900,1440,9.439416666666666,
1103,default,block1,julian,ai,0.29,9299,be_annoyed,30,be_annoyed,C,[],22,Yes,It was tricky to know how to scale some of those sentences unless I spoke them out loud.,Female,English ,Chrome,Mac,900,1440,9.439416666666666,
1103,default,block2,emily,projective,0.21,15195,establish,32,establish,C,[],22,Yes,It was tricky to know how to scale some of those sentences unless I spoke them out loud.,Female,English ,Chrome,Mac,900,1440,9.439416666666666,
1103,default,block2,olivia,projective,0.75,60330,discover,33,discover,C,[],22,Yes,It was tricky to know how to scale some of those sentences unless I spoke them out loud.,Female,English ,Chrome,Mac,900,1440,9.439416666666666,
1103,default,block2,tony,projective,0.61,5291,announce,34,announce,C,[],22,Yes,It was tricky to know how to scale some of those sentences unless I spoke them out loud.,Female,English ,Chrome,Mac,900,1440,9.439416666666666,
1103,default,block2,josie,projective,0.6,6741,demonstrate,35,demonstrate,C,[],22,Yes,It was tricky to know how to scale some of those sentences unless I spoke them out loud.,Female,English ,Chrome,Mac,900,1440,9.439416666666666,
1103,default,block2,jon,projective,0.34,10777,suggest,36,suggest,C,[],22,Yes,It was tricky to know how to scale some of those sentences unless I spoke them out loud.,Female,English ,Chrome,Mac,900,1440,9.439416666666666,
1103,default,block2,hat,projective,0.88,5506,MC,37,MC,MC,[],22,Yes,It was tricky to know how to scale some of those sentences unless I spoke them out loud.,Female,English ,Chrome,Mac,900,1440,9.439416666666666,
1103,default,block2,muffins,projective,0.88,6655,MC,38,MC,MC,[],22,Yes,It was tricky to know how to scale some of those sentences unless I spoke them out loud.,Female,English ,Chrome,Mac,900,1440,9.439416666666666,
1103,default,block2,ballet,projective,0.94,15921,MC,39,MC,MC,[],22,Yes,It was tricky to know how to scale some of those sentences unless I spoke them out loud.,Female,English ,Chrome,Mac,900,1440,9.439416666666666,
1103,default,block2,mia,projective,0.22,5729,prove,40,prove,C,[],22,Yes,It was tricky to know how to scale some of those sentences unless I spoke them out loud.,Female,English ,Chrome,Mac,900,1440,9.439416666666666,
1103,default,block2,grace,projective,0.83,6855,see,41,see,C,[],22,Yes,It was tricky to know how to scale some of those sentences unless I spoke them out loud.,Female,English ,Chrome,Mac,900,1440,9.439416666666666,
1103,default,block2,kids,projective,0.81,11387,MC,42,MC,MC,[],22,Yes,It was tricky to know how to scale some of those sentences unless I spoke them out loud.,Female,English ,Chrome,Mac,900,1440,9.439416666666666,
1103,default,block2,danny,projective,0.43,20460,confess,43,confess,C,[],22,Yes,It was tricky to know how to scale some of those sentences unless I spoke them out loud.,Female,English ,Chrome,Mac,900,1440,9.439416666666666,
1103,default,block2,mary,projective,0.29,7206,pretend,44,pretend,C,[],22,Yes,It was tricky to know how to scale some of those sentences unless I spoke them out loud.,Female,English ,Chrome,Mac,900,1440,9.439416666666666,
1103,default,block2,emma,projective,0.79,7094,inform,45,inform,C,[],22,Yes,It was tricky to know how to scale some of those sentences unless I spoke them out loud.,Female,English ,Chrome,Mac,900,1440,9.439416666666666,
1103,default,block2,jayden,projective,0.83,5403,know,46,know,C,[],22,Yes,It was tricky to know how to scale some of those sentences unless I spoke them out loud.,Female,English ,Chrome,Mac,900,1440,9.439416666666666,
1103,default,block2,garage,projective,0.88,4135,MC,47,MC,MC,[],22,Yes,It was tricky to know how to scale some of those sentences unless I spoke them out loud.,Female,English ,Chrome,Mac,900,1440,9.439416666666666,
1103,default,block2,jackson,projective,0.82,3634,reveal,48,reveal,C,[],22,Yes,It was tricky to know how to scale some of those sentences unless I spoke them out loud.,Female,English ,Chrome,Mac,900,1440,9.439416666666666,
1103,default,block2,isabella,projective,0.47,6002,confirm,49,confirm,C,[],22,Yes,It was tricky to know how to scale some of those sentences unless I spoke them out loud.,Female,English ,Chrome,Mac,900,1440,9.439416666666666,
1103,default,block2,owen,projective,0.35,5427,think,50,think,C,[],22,Yes,It was tricky to know how to scale some of those sentences unless I spoke them out loud.,Female,English ,Chrome,Mac,900,1440,9.439416666666666,
1103,default,block2,charley,projective,0.5,3443,admit,51,admit,C,[],22,Yes,It was tricky to know how to scale some of those sentences unless I spoke them out loud.,Female,English ,Chrome,Mac,900,1440,9.439416666666666,
1103,default,block2,julian,projective,0.8,5094,be_annoyed,52,be_annoyed,C,[],22,Yes,It was tricky to know how to scale some of those sentences unless I spoke them out loud.,Female,English ,Chrome,Mac,900,1440,9.439416666666666,
1103,default,block2,frank,projective,0.8,4287,be_right,53,be_right,C,[],22,Yes,It was tricky to know how to scale some of those sentences unless I spoke them out loud.,Female,English ,Chrome,Mac,900,1440,9.439416666666666,
1103,default,block2,zoe,projective,0.77,5341,hear,54,hear,C,[],22,Yes,It was tricky to know how to scale some of those sentences unless I spoke them out loud.,Female,English ,Chrome,Mac,900,1440,9.439416666666666,
1103,default,block2,pizza,projective,0.91,4447,MC,55,MC,MC,[],22,Yes,It was tricky to know how to scale some of those sentences unless I spoke them out loud.,Female,English ,Chrome,Mac,900,1440,9.439416666666666,
1103,default,block2,sophia,projective,0.6,5085,say,56,say,C,[],22,Yes,It was tricky to know how to scale some of those sentences unless I spoke them out loud.,Female,English ,Chrome,Mac,900,1440,9.439416666666666,
1103,default,block2,josh,projective,0.84,9094,acknowledge,57,acknowledge,C,[],22,Yes,It was tricky to know how to scale some of those sentences unless I spoke them out loud.,Female,English ,Chrome,Mac,900,1440,9.439416666666666,
1106,default,block1,olivia,ai,0.02,13419,hear,5,hear,C,[],19,Yes,,Female,English,Safari,Mac,900,1440,6.704033333333333,
1106,default,block1,mia,ai,0.01,8902,admit,6,admit,C,[],19,Yes,,Female,English,Safari,Mac,900,1440,6.704033333333333,
1106,default,block1,josh,ai,0.01,9318,be_right,7,be_right,C,[],19,Yes,,Female,English,Safari,Mac,900,1440,6.704033333333333,
1106,default,block1,zoe,ai,0.01,4779,demonstrate,8,demonstrate,C,[],19,Yes,,Female,English,Safari,Mac,900,1440,6.704033333333333,
1106,default,block1,sophia,ai,0.01,5236,prove,9,prove,C,[],19,Yes,,Female,English,Safari,Mac,900,1440,6.704033333333333,
1106,default,block1,charley,ai,0.03,6031,know,10,know,C,[],19,Yes,,Female,English,Safari,Mac,900,1440,6.704033333333333,
1106,default,block1,kids,ai,1,8324,MC,11,MC,MC,[],19,Yes,,Female,English,Safari,Mac,900,1440,6.704033333333333,
1106,default,block1,owen,ai,0.01,6717,see,12,see,C,[],19,Yes,,Female,English,Safari,Mac,900,1440,6.704033333333333,
1106,default,block1,frank,ai,0.01,5838,confess,13,confess,C,[],19,Yes,,Female,English,Safari,Mac,900,1440,6.704033333333333,
1106,default,block1,emily,ai,0,6372,think,14,think,C,[],19,Yes,,Female,English,Safari,Mac,900,1440,6.704033333333333,
1106,default,block1,mary,ai,0.01,4228,reveal,15,reveal,C,[],19,Yes,,Female,English,Safari,Mac,900,1440,6.704033333333333,
1106,default,block1,pizza,ai,0.01,5613,MC,16,MC,MC,[],19,Yes,,Female,English,Safari,Mac,900,1440,6.704033333333333,
1106,default,block1,julian,ai,0.02,5582,discover,17,discover,C,[],19,Yes,,Female,English,Safari,Mac,900,1440,6.704033333333333,
1106,default,block1,grace,ai,0.01,4775,pretend,18,pretend,C,[],19,Yes,,Female,English,Safari,Mac,900,1440,6.704033333333333,
1106,default,block1,jackson,ai,0,3875,confirm,19,confirm,C,[],19,Yes,,Female,English,Safari,Mac,900,1440,6.704033333333333,
1106,default,block1,garage,ai,0.98,13058,MC,20,MC,MC,[],19,Yes,,Female,English,Safari,Mac,900,1440,6.704033333333333,
1106,default,block1,emma,ai,0.01,5892,acknowledge,21,acknowledge,C,[],19,Yes,,Female,English,Safari,Mac,900,1440,6.704033333333333,
1106,default,block1,danny,ai,0.01,3810,suggest,22,suggest,C,[],19,Yes,,Female,English,Safari,Mac,900,1440,6.704033333333333,
1106,default,block1,muffins,ai,0.98,8753,MC,23,MC,MC,[],19,Yes,,Female,English,Safari,Mac,900,1440,6.704033333333333,
1106,default,block1,jayden,ai,0.01,3848,establish,24,establish,C,[],19,Yes,,Female,English,Safari,Mac,900,1440,6.704033333333333,
1106,default,block1,tony,ai,0.03,6388,announce,25,announce,C,[],19,Yes,,Female,English,Safari,Mac,900,1440,6.704033333333333,
1106,default,block1,josie,ai,0,10193,inform,26,inform,C,[],19,Yes,,Female,English,Safari,Mac,900,1440,6.704033333333333,
1106,default,block1,ballet,ai,0.98,11722,MC,27,MC,MC,[],19,Yes,,Female,English,Safari,Mac,900,1440,6.704033333333333,
1106,default,block1,jon,ai,0.01,6529,say,28,say,C,[],19,Yes,,Female,English,Safari,Mac,900,1440,6.704033333333333,
1106,default,block1,isabella,ai,0.97,14258,be_annoyed,29,be_annoyed,C,[],19,Yes,,Female,English,Safari,Mac,900,1440,6.704033333333333,
1106,default,block1,hat,ai,0.99,7241,MC,30,MC,MC,[],19,Yes,,Female,English,Safari,Mac,900,1440,6.704033333333333,
1106,default,block2,jayden,projective,0.02,7408,establish,32,establish,C,[],19,Yes,,Female,English,Safari,Mac,900,1440,6.704033333333333,
1106,default,block2,tony,projective,0.01,13956,announce,33,announce,C,[],19,Yes,,Female,English,Safari,Mac,900,1440,6.704033333333333,
1106,default,block2,zoe,projective,0.02,7979,demonstrate,34,demonstrate,C,[],19,Yes,,Female,English,Safari,Mac,900,1440,6.704033333333333,
1106,default,block2,pizza,projective,0.98,6162,MC,35,MC,MC,[],19,Yes,,Female,English,Safari,Mac,900,1440,6.704033333333333,
1106,default,block2,muffins,projective,0.99,3132,MC,36,MC,MC,[],19,Yes,,Female,English,Safari,Mac,900,1440,6.704033333333333,
1106,default,block2,julian,projective,0.98,5626,discover,37,discover,C,[],19,Yes,,Female,English,Safari,Mac,900,1440,6.704033333333333,
1106,default,block2,mary,projective,0.01,5547,reveal,38,reveal,C,[],19,Yes,,Female,English,Safari,Mac,900,1440,6.704033333333333,
1106,default,block2,hat,projective,0.97,4441,MC,39,MC,MC,[],19,Yes,,Female,English,Safari,Mac,900,1440,6.704033333333333,
1106,default,block2,jon,projective,0.99,5461,say,40,say,C,[],19,Yes,,Female,English,Safari,Mac,900,1440,6.704033333333333,
1106,default,block2,danny,projective,0.02,6549,suggest,41,suggest,C,[],19,Yes,,Female,English,Safari,Mac,900,1440,6.704033333333333,
1106,default,block2,isabella,projective,0.98,4390,be_annoyed,42,be_annoyed,C,[],19,Yes,,Female,English,Safari,Mac,900,1440,6.704033333333333,
1106,default,block2,mia,projective,0.98,3755,admit,43,admit,C,[],19,Yes,,Female,English,Safari,Mac,900,1440,6.704033333333333,
1106,default,block2,ballet,projective,0.98,2784,MC,44,MC,MC,[],19,Yes,,Female,English,Safari,Mac,900,1440,6.704033333333333,
1106,default,block2,olivia,projective,0.99,5334,hear,45,hear,C,[],19,Yes,,Female,English,Safari,Mac,900,1440,6.704033333333333,
1106,default,block2,jackson,projective,1,5138,confirm,46,confirm,C,[],19,Yes,,Female,English,Safari,Mac,900,1440,6.704033333333333,
1106,default,block2,garage,projective,0.99,4238,MC,47,MC,MC,[],19,Yes,,Female,English,Safari,Mac,900,1440,6.704033333333333,
1106,default,block2,kids,projective,0.99,4754,MC,48,MC,MC,[],19,Yes,,Female,English,Safari,Mac,900,1440,6.704033333333333,
1106,default,block2,emma,projective,0.84,9428,acknowledge,49,acknowledge,C,[],19,Yes,,Female,English,Safari,Mac,900,1440,6.704033333333333,
1106,default,block2,frank,projective,0.99,5647,confess,50,confess,C,[],19,Yes,,Female,English,Safari,Mac,900,1440,6.704033333333333,
1106,default,block2,josh,projective,0.22,6254,be_right,51,be_right,C,[],19,Yes,,Female,English,Safari,Mac,900,1440,6.704033333333333,
1106,default,block2,charley,projective,1,5886,know,52,know,C,[],19,Yes,,Female,English,Safari,Mac,900,1440,6.704033333333333,
1106,default,block2,owen,projective,0.98,5329,see,53,see,C,[],19,Yes,,Female,English,Safari,Mac,900,1440,6.704033333333333,
1106,default,block2,sophia,projective,0.94,6054,prove,54,prove,C,[],19,Yes,,Female,English,Safari,Mac,900,1440,6.704033333333333,
1106,default,block2,grace,projective,0.22,8041,pretend,55,pretend,C,[],19,Yes,,Female,English,Safari,Mac,900,1440,6.704033333333333,
1106,default,block2,emily,projective,0.56,10063,think,56,think,C,[],19,Yes,,Female,English,Safari,Mac,900,1440,6.704033333333333,
1106,default,block2,josie,projective,0.94,6265,inform,57,inform,C,[],19,Yes,,Female,English,Safari,Mac,900,1440,6.704033333333333,
