workerid,proliferate.condition,block,content,question_type,response,rt,short_trigger,slide_number_in_experiment,trigger,trigger_class,catch_trials,subject_information.age,subject_information.american,subject_information.comments,subject_information.gender,subject_information.language,system.Browser,system.OS,system.screenH,system.screenW,time_in_minutes,error
29,default,block1,pizza,projective,1,11436,MC,5,MC,MC,[],21,Yes,"Sometimes the verb made the nuance a bit different, so it was interesting to see when I was more sure about the meaning and when I wasn't as sure.",Other,English,Firefox,Windows,1080,1920,13.240933333333333,
29,default,block1,grace,projective,0.04,19094,say,6,say,C,[],21,Yes,"Sometimes the verb made the nuance a bit different, so it was interesting to see when I was more sure about the meaning and when I wasn't as sure.",Other,English,Firefox,Windows,1080,1920,13.240933333333333,
29,default,block1,garage,projective,1,9774,MC,7,MC,MC,[],21,Yes,"Sometimes the verb made the nuance a bit different, so it was interesting to see when I was more sure about the meaning and when I wasn't as sure.",Other,English,Firefox,Windows,1080,1920,13.240933333333333,
29,default,block1,sophia,projective,1,14972,hear,8,hear,C,[],21,Yes,"Sometimes the verb made the nuance a bit different, so it was interesting to see when I was more sure about the meaning and when I wasn't as sure.",Other,English,Firefox,Windows,1080,1920,13.240933333333333,
29,default,block1,kids,projective,1,16325,MC,9,MC,MC,[],21,Yes,"Sometimes the verb made the nuance a bit different, so it was interesting to see when I was more sure about the meaning and when I wasn't as sure.",Other,English,Firefox,Windows,1080,1920,13.240933333333333,
29,default,block1,tony,projective,0.06,22874,confirm,10,confirm,C,[],21,Yes,"Sometimes the verb made the nuance a bit different, so it was interesting to see when I was more sure about the meaning and when I wasn't as sure.",Other,English,Firefox,Windows,1080,1920,13.240933333333333,
29,default,block1,josh,projective,0.99,13465,know,11,know,C,[],21,Yes,"Sometimes the verb made the nuance a bit different, so it was interesting to see when I was more sure about the meaning and when I wasn't as sure.",Other,English,Firefox,Windows,1080,1920,13.240933333333333,
29,default,block1,ballet,projective,1,8431,MC,12,MC,MC,[],21,Yes,"Sometimes the verb made the nuance a bit different, so it was interesting to see when I was more sure about the meaning and when I wasn't as sure.",Other,English,Firefox,Windows,1080,1920,13.240933333333333,
29,default,block1,jayden,projective,0.06,10665,prove,13,prove,C,[],21,Yes,"Sometimes the verb made the nuance a bit different, so it was interesting to see when I was more sure about the meaning and when I wasn't as sure.",Other,English,Firefox,Windows,1080,1920,13.240933333333333,
29,default,block1,frank,projective,0,6878,be_right,14,be_right,C,[],21,Yes,"Sometimes the verb made the nuance a bit different, so it was interesting to see when I was more sure about the meaning and when I wasn't as sure.",Other,English,Firefox,Windows,1080,1920,13.240933333333333,
29,default,block1,jackson,projective,0.48,10995,admit,15,admit,C,[],21,Yes,"Sometimes the verb made the nuance a bit different, so it was interesting to see when I was more sure about the meaning and when I wasn't as sure.",Other,English,Firefox,Windows,1080,1920,13.240933333333333,
29,default,block1,mia,projective,1,14114,discover,16,discover,C,[],21,Yes,"Sometimes the verb made the nuance a bit different, so it was interesting to see when I was more sure about the meaning and when I wasn't as sure.",Other,English,Firefox,Windows,1080,1920,13.240933333333333,
29,default,block1,emma,projective,0.98,10709,announce,17,announce,C,[],21,Yes,"Sometimes the verb made the nuance a bit different, so it was interesting to see when I was more sure about the meaning and when I wasn't as sure.",Other,English,Firefox,Windows,1080,1920,13.240933333333333,
29,default,block1,olivia,projective,1,34081,acknowledge,18,acknowledge,C,[],21,Yes,"Sometimes the verb made the nuance a bit different, so it was interesting to see when I was more sure about the meaning and when I wasn't as sure.",Other,English,Firefox,Windows,1080,1920,13.240933333333333,
29,default,block1,emily,projective,0,9479,pretend,19,pretend,C,[],21,Yes,"Sometimes the verb made the nuance a bit different, so it was interesting to see when I was more sure about the meaning and when I wasn't as sure.",Other,English,Firefox,Windows,1080,1920,13.240933333333333,
29,default,block1,mary,projective,0.1,10724,confess,20,confess,C,[],21,Yes,"Sometimes the verb made the nuance a bit different, so it was interesting to see when I was more sure about the meaning and when I wasn't as sure.",Other,English,Firefox,Windows,1080,1920,13.240933333333333,
29,default,block1,zoe,projective,1,29867,inform,21,inform,C,[],21,Yes,"Sometimes the verb made the nuance a bit different, so it was interesting to see when I was more sure about the meaning and when I wasn't as sure.",Other,English,Firefox,Windows,1080,1920,13.240933333333333,
29,default,block1,jon,projective,0.96,12458,demonstrate,22,demonstrate,C,[],21,Yes,"Sometimes the verb made the nuance a bit different, so it was interesting to see when I was more sure about the meaning and when I wasn't as sure.",Other,English,Firefox,Windows,1080,1920,13.240933333333333,
29,default,block1,julian,projective,1,9941,establish,23,establish,C,[],21,Yes,"Sometimes the verb made the nuance a bit different, so it was interesting to see when I was more sure about the meaning and when I wasn't as sure.",Other,English,Firefox,Windows,1080,1920,13.240933333333333,
29,default,block1,hat,projective,1,4789,MC,24,MC,MC,[],21,Yes,"Sometimes the verb made the nuance a bit different, so it was interesting to see when I was more sure about the meaning and when I wasn't as sure.",Other,English,Firefox,Windows,1080,1920,13.240933333333333,
29,default,block1,isabella,projective,0.01,14444,think,25,think,C,[],21,Yes,"Sometimes the verb made the nuance a bit different, so it was interesting to see when I was more sure about the meaning and when I wasn't as sure.",Other,English,Firefox,Windows,1080,1920,13.240933333333333,
29,default,block1,muffins,projective,1,5883,MC,26,MC,MC,[],21,Yes,"Sometimes the verb made the nuance a bit different, so it was interesting to see when I was more sure about the meaning and when I wasn't as sure.",Other,English,Firefox,Windows,1080,1920,13.240933333333333,
29,default,block1,owen,projective,0.51,21418,suggest,27,suggest,C,[],21,Yes,"Sometimes the verb made the nuance a bit different, so it was interesting to see when I was more sure about the meaning and when I wasn't as sure.",Other,English,Firefox,Windows,1080,1920,13.240933333333333,
29,default,block1,charley,projective,1,6809,be_annoyed,28,be_annoyed,C,[],21,Yes,"Sometimes the verb made the nuance a bit different, so it was interesting to see when I was more sure about the meaning and when I wasn't as sure.",Other,English,Firefox,Windows,1080,1920,13.240933333333333,
29,default,block1,danny,projective,1,9880,see,29,see,C,[],21,Yes,"Sometimes the verb made the nuance a bit different, so it was interesting to see when I was more sure about the meaning and when I wasn't as sure.",Other,English,Firefox,Windows,1080,1920,13.240933333333333,
29,default,block1,josie,projective,1,31812,reveal,30,reveal,C,[],21,Yes,"Sometimes the verb made the nuance a bit different, so it was interesting to see when I was more sure about the meaning and when I wasn't as sure.",Other,English,Firefox,Windows,1080,1920,13.240933333333333,
29,default,block2,tony,ai,0.07,17026,confirm,32,confirm,C,[],21,Yes,"Sometimes the verb made the nuance a bit different, so it was interesting to see when I was more sure about the meaning and when I wasn't as sure.",Other,English,Firefox,Windows,1080,1920,13.240933333333333,
29,default,block2,frank,ai,1,15880,be_right,33,be_right,C,[],21,Yes,"Sometimes the verb made the nuance a bit different, so it was interesting to see when I was more sure about the meaning and when I wasn't as sure.",Other,English,Firefox,Windows,1080,1920,13.240933333333333,
29,default,block2,josh,ai,0.04,13270,know,34,know,C,[],21,Yes,"Sometimes the verb made the nuance a bit different, so it was interesting to see when I was more sure about the meaning and when I wasn't as sure.",Other,English,Firefox,Windows,1080,1920,13.240933333333333,
29,default,block2,grace,ai,0.07,8451,say,35,say,C,[],21,Yes,"Sometimes the verb made the nuance a bit different, so it was interesting to see when I was more sure about the meaning and when I wasn't as sure.",Other,English,Firefox,Windows,1080,1920,13.240933333333333,
29,default,block2,mary,ai,0.13,6972,confess,36,confess,C,[],21,Yes,"Sometimes the verb made the nuance a bit different, so it was interesting to see when I was more sure about the meaning and when I wasn't as sure.",Other,English,Firefox,Windows,1080,1920,13.240933333333333,
29,default,block2,zoe,ai,0.08,13597,inform,37,inform,C,[],21,Yes,"Sometimes the verb made the nuance a bit different, so it was interesting to see when I was more sure about the meaning and when I wasn't as sure.",Other,English,Firefox,Windows,1080,1920,13.240933333333333,
29,default,block2,jayden,ai,0.13,6268,prove,38,prove,C,[],21,Yes,"Sometimes the verb made the nuance a bit different, so it was interesting to see when I was more sure about the meaning and when I wasn't as sure.",Other,English,Firefox,Windows,1080,1920,13.240933333333333,
29,default,block2,josie,ai,0.16,14248,reveal,39,reveal,C,[],21,Yes,"Sometimes the verb made the nuance a bit different, so it was interesting to see when I was more sure about the meaning and when I wasn't as sure.",Other,English,Firefox,Windows,1080,1920,13.240933333333333,
29,default,block2,hat,ai,1,9478,MC,40,MC,MC,[],21,Yes,"Sometimes the verb made the nuance a bit different, so it was interesting to see when I was more sure about the meaning and when I wasn't as sure.",Other,English,Firefox,Windows,1080,1920,13.240933333333333,
29,default,block2,pizza,ai,1,3350,MC,41,MC,MC,[],21,Yes,"Sometimes the verb made the nuance a bit different, so it was interesting to see when I was more sure about the meaning and when I wasn't as sure.",Other,English,Firefox,Windows,1080,1920,13.240933333333333,
29,default,block2,jackson,ai,0.1,13536,admit,42,admit,C,[],21,Yes,"Sometimes the verb made the nuance a bit different, so it was interesting to see when I was more sure about the meaning and when I wasn't as sure.",Other,English,Firefox,Windows,1080,1920,13.240933333333333,
29,default,block2,garage,ai,1,3878,MC,43,MC,MC,[],21,Yes,"Sometimes the verb made the nuance a bit different, so it was interesting to see when I was more sure about the meaning and when I wasn't as sure.",Other,English,Firefox,Windows,1080,1920,13.240933333333333,
29,default,block2,julian,ai,0.15,9906,establish,44,establish,C,[],21,Yes,"Sometimes the verb made the nuance a bit different, so it was interesting to see when I was more sure about the meaning and when I wasn't as sure.",Other,English,Firefox,Windows,1080,1920,13.240933333333333,
29,default,block2,isabella,ai,0,8248,think,45,think,C,[],21,Yes,"Sometimes the verb made the nuance a bit different, so it was interesting to see when I was more sure about the meaning and when I wasn't as sure.",Other,English,Firefox,Windows,1080,1920,13.240933333333333,
29,default,block2,sophia,ai,0,12971,hear,46,hear,C,[],21,Yes,"Sometimes the verb made the nuance a bit different, so it was interesting to see when I was more sure about the meaning and when I wasn't as sure.",Other,English,Firefox,Windows,1080,1920,13.240933333333333,
29,default,block2,olivia,ai,0.06,11723,acknowledge,47,acknowledge,C,[],21,Yes,"Sometimes the verb made the nuance a bit different, so it was interesting to see when I was more sure about the meaning and when I wasn't as sure.",Other,English,Firefox,Windows,1080,1920,13.240933333333333,
29,default,block2,ballet,ai,1,2954,MC,48,MC,MC,[],21,Yes,"Sometimes the verb made the nuance a bit different, so it was interesting to see when I was more sure about the meaning and when I wasn't as sure.",Other,English,Firefox,Windows,1080,1920,13.240933333333333,
29,default,block2,jon,ai,0.46,8776,demonstrate,49,demonstrate,C,[],21,Yes,"Sometimes the verb made the nuance a bit different, so it was interesting to see when I was more sure about the meaning and when I wasn't as sure.",Other,English,Firefox,Windows,1080,1920,13.240933333333333,
29,default,block2,danny,ai,0,8049,see,50,see,C,[],21,Yes,"Sometimes the verb made the nuance a bit different, so it was interesting to see when I was more sure about the meaning and when I wasn't as sure.",Other,English,Firefox,Windows,1080,1920,13.240933333333333,
29,default,block2,emily,ai,0,5911,pretend,51,pretend,C,[],21,Yes,"Sometimes the verb made the nuance a bit different, so it was interesting to see when I was more sure about the meaning and when I wasn't as sure.",Other,English,Firefox,Windows,1080,1920,13.240933333333333,
29,default,block2,mia,ai,0,9990,discover,52,discover,C,[],21,Yes,"Sometimes the verb made the nuance a bit different, so it was interesting to see when I was more sure about the meaning and when I wasn't as sure.",Other,English,Firefox,Windows,1080,1920,13.240933333333333,
29,default,block2,charley,ai,0,5286,be_annoyed,53,be_annoyed,C,[],21,Yes,"Sometimes the verb made the nuance a bit different, so it was interesting to see when I was more sure about the meaning and when I wasn't as sure.",Other,English,Firefox,Windows,1080,1920,13.240933333333333,
29,default,block2,muffins,ai,1,6803,MC,54,MC,MC,[],21,Yes,"Sometimes the verb made the nuance a bit different, so it was interesting to see when I was more sure about the meaning and when I wasn't as sure.",Other,English,Firefox,Windows,1080,1920,13.240933333333333,
29,default,block2,emma,ai,0.11,13796,announce,55,announce,C,[],21,Yes,"Sometimes the verb made the nuance a bit different, so it was interesting to see when I was more sure about the meaning and when I wasn't as sure.",Other,English,Firefox,Windows,1080,1920,13.240933333333333,
29,default,block2,owen,ai,0.08,5999,suggest,56,suggest,C,[],21,Yes,"Sometimes the verb made the nuance a bit different, so it was interesting to see when I was more sure about the meaning and when I wasn't as sure.",Other,English,Firefox,Windows,1080,1920,13.240933333333333,
29,default,block2,kids,ai,1,3047,MC,57,MC,MC,[],21,Yes,"Sometimes the verb made the nuance a bit different, so it was interesting to see when I was more sure about the meaning and when I wasn't as sure.",Other,English,Firefox,Windows,1080,1920,13.240933333333333,
34,default,block1,julian,ai,1,14628,acknowledge,5,acknowledge,C,[],28,Yes,very good study,Male,English,Chrome,Windows,600,1024,9.043033333333334,
34,default,block1,garage,ai,0.96,9836,MC,6,MC,MC,[],28,Yes,very good study,Male,English,Chrome,Windows,600,1024,9.043033333333334,
34,default,block1,tony,ai,1,9167,confess,7,confess,C,[],28,Yes,very good study,Male,English,Chrome,Windows,600,1024,9.043033333333334,
34,default,block1,kids,ai,1,8889,MC,8,MC,MC,[],28,Yes,very good study,Male,English,Chrome,Windows,600,1024,9.043033333333334,
34,default,block1,zoe,ai,1,8555,be_right,9,be_right,C,[],28,Yes,very good study,Male,English,Chrome,Windows,600,1024,9.043033333333334,
34,default,block1,pizza,ai,1,12467,MC,10,MC,MC,[],28,Yes,very good study,Male,English,Chrome,Windows,600,1024,9.043033333333334,
34,default,block1,jackson,ai,1,22408,be_annoyed,11,be_annoyed,C,[],28,Yes,very good study,Male,English,Chrome,Windows,600,1024,9.043033333333334,
34,default,block1,olivia,ai,1,12234,suggest,12,suggest,C,[],28,Yes,very good study,Male,English,Chrome,Windows,600,1024,9.043033333333334,
34,default,block1,emma,ai,1,8028,think,13,think,C,[],28,Yes,very good study,Male,English,Chrome,Windows,600,1024,9.043033333333334,
34,default,block1,isabella,ai,0,10859,hear,14,hear,C,[],28,Yes,very good study,Male,English,Chrome,Windows,600,1024,9.043033333333334,
34,default,block1,muffins,ai,1,6214,MC,15,MC,MC,[],28,Yes,very good study,Male,English,Chrome,Windows,600,1024,9.043033333333334,
34,default,block1,sophia,ai,1,9741,confirm,16,confirm,C,[],28,Yes,very good study,Male,English,Chrome,Windows,600,1024,9.043033333333334,
34,default,block1,hat,ai,1,6604,MC,17,MC,MC,[],28,Yes,very good study,Male,English,Chrome,Windows,600,1024,9.043033333333334,
34,default,block1,mary,ai,0.95,9317,reveal,18,reveal,C,[],28,Yes,very good study,Male,English,Chrome,Windows,600,1024,9.043033333333334,
34,default,block1,ballet,ai,1,9121,MC,19,MC,MC,[],28,Yes,very good study,Male,English,Chrome,Windows,600,1024,9.043033333333334,
34,default,block1,jayden,ai,0.39,17681,establish,20,establish,C,[],28,Yes,very good study,Male,English,Chrome,Windows,600,1024,9.043033333333334,
34,default,block1,emily,ai,0.45,16657,demonstrate,21,demonstrate,C,[],28,Yes,very good study,Male,English,Chrome,Windows,600,1024,9.043033333333334,
34,default,block1,josh,ai,0.61,8070,announce,22,announce,C,[],28,Yes,very good study,Male,English,Chrome,Windows,600,1024,9.043033333333334,
34,default,block1,mia,ai,0.93,26679,know,23,know,C,[],28,Yes,very good study,Male,English,Chrome,Windows,600,1024,9.043033333333334,
34,default,block1,charley,ai,1,8326,say,24,say,C,[],28,Yes,very good study,Male,English,Chrome,Windows,600,1024,9.043033333333334,
34,default,block1,josie,ai,0.44,14490,discover,25,discover,C,[],28,Yes,very good study,Male,English,Chrome,Windows,600,1024,9.043033333333334,
34,default,block1,grace,ai,0.26,11025,admit,26,admit,C,[],28,Yes,very good study,Male,English,Chrome,Windows,600,1024,9.043033333333334,
34,default,block1,owen,ai,0.42,8568,prove,27,prove,C,[],28,Yes,very good study,Male,English,Chrome,Windows,600,1024,9.043033333333334,
34,default,block1,jon,ai,0.07,9938,see,28,see,C,[],28,Yes,very good study,Male,English,Chrome,Windows,600,1024,9.043033333333334,
34,default,block1,danny,ai,0.17,10586,pretend,29,pretend,C,[],28,Yes,very good study,Male,English,Chrome,Windows,600,1024,9.043033333333334,
34,default,block1,frank,ai,0.23,10461,inform,30,inform,C,[],28,Yes,very good study,Male,English,Chrome,Windows,600,1024,9.043033333333334,
34,default,block2,charley,projective,0.05,10886,say,32,say,C,[],28,Yes,very good study,Male,English,Chrome,Windows,600,1024,9.043033333333334,
34,default,block2,josie,projective,0.05,6231,discover,33,discover,C,[],28,Yes,very good study,Male,English,Chrome,Windows,600,1024,9.043033333333334,
34,default,block2,danny,projective,0.19,9164,pretend,34,pretend,C,[],28,Yes,very good study,Male,English,Chrome,Windows,600,1024,9.043033333333334,
34,default,block2,frank,projective,0.05,11245,inform,35,inform,C,[],28,Yes,very good study,Male,English,Chrome,Windows,600,1024,9.043033333333334,
34,default,block2,kids,projective,1,8914,MC,36,MC,MC,[],28,Yes,very good study,Male,English,Chrome,Windows,600,1024,9.043033333333334,
34,default,block2,grace,projective,0.04,5395,admit,37,admit,C,[],28,Yes,very good study,Male,English,Chrome,Windows,600,1024,9.043033333333334,
34,default,block2,jon,projective,0.12,9141,see,38,see,C,[],28,Yes,very good study,Male,English,Chrome,Windows,600,1024,9.043033333333334,
34,default,block2,zoe,projective,0.05,7839,be_right,39,be_right,C,[],28,Yes,very good study,Male,English,Chrome,Windows,600,1024,9.043033333333334,
34,default,block2,pizza,projective,1,5701,MC,40,MC,MC,[],28,Yes,very good study,Male,English,Chrome,Windows,600,1024,9.043033333333334,
34,default,block2,owen,projective,0.08,4910,prove,41,prove,C,[],28,Yes,very good study,Male,English,Chrome,Windows,600,1024,9.043033333333334,
34,default,block2,jayden,projective,0.01,4676,establish,42,establish,C,[],28,Yes,very good study,Male,English,Chrome,Windows,600,1024,9.043033333333334,
34,default,block2,julian,projective,0.01,3994,acknowledge,43,acknowledge,C,[],28,Yes,very good study,Male,English,Chrome,Windows,600,1024,9.043033333333334,
34,default,block2,sophia,projective,0.06,26827,confirm,44,confirm,C,[],28,Yes,very good study,Male,English,Chrome,Windows,600,1024,9.043033333333334,
34,default,block2,isabella,projective,0.06,4048,hear,45,hear,C,[],28,Yes,very good study,Male,English,Chrome,Windows,600,1024,9.043033333333334,
34,default,block2,emily,projective,0.05,2539,demonstrate,46,demonstrate,C,[],28,Yes,very good study,Male,English,Chrome,Windows,600,1024,9.043033333333334,
34,default,block2,garage,projective,0.98,6052,MC,47,MC,MC,[],28,Yes,very good study,Male,English,Chrome,Windows,600,1024,9.043033333333334,
34,default,block2,josh,projective,0.01,4536,announce,48,announce,C,[],28,Yes,very good study,Male,English,Chrome,Windows,600,1024,9.043033333333334,
34,default,block2,mia,projective,0.04,3724,know,49,know,C,[],28,Yes,very good study,Male,English,Chrome,Windows,600,1024,9.043033333333334,
34,default,block2,olivia,projective,0.03,7695,suggest,50,suggest,C,[],28,Yes,very good study,Male,English,Chrome,Windows,600,1024,9.043033333333334,
34,default,block2,mary,projective,0.05,5215,reveal,51,reveal,C,[],28,Yes,very good study,Male,English,Chrome,Windows,600,1024,9.043033333333334,
34,default,block2,jackson,projective,0.02,4385,be_annoyed,52,be_annoyed,C,[],28,Yes,very good study,Male,English,Chrome,Windows,600,1024,9.043033333333334,
34,default,block2,emma,projective,0.09,4018,think,53,think,C,[],28,Yes,very good study,Male,English,Chrome,Windows,600,1024,9.043033333333334,
34,default,block2,ballet,projective,1,5911,MC,54,MC,MC,[],28,Yes,very good study,Male,English,Chrome,Windows,600,1024,9.043033333333334,
34,default,block2,hat,projective,0.95,4132,MC,55,MC,MC,[],28,Yes,very good study,Male,English,Chrome,Windows,600,1024,9.043033333333334,
34,default,block2,muffins,projective,0.97,5821,MC,56,MC,MC,[],28,Yes,very good study,Male,English,Chrome,Windows,600,1024,9.043033333333334,
34,default,block2,tony,projective,0.08,3842,confess,57,confess,C,[],28,Yes,very good study,Male,English,Chrome,Windows,600,1024,9.043033333333334,
31,default,block1,josh,ai,1,11975,think,5,think,C,[],37,Yes,,Male,English,Chrome,Windows,768,1366,7.082316666666666,
31,default,block1,muffins,ai,1,12528,MC,6,MC,MC,[],37,Yes,,Male,English,Chrome,Windows,768,1366,7.082316666666666,
31,default,block1,kids,ai,1,5400,MC,7,MC,MC,[],37,Yes,,Male,English,Chrome,Windows,768,1366,7.082316666666666,
31,default,block1,grace,ai,0.66,14008,suggest,8,suggest,C,[],37,Yes,,Male,English,Chrome,Windows,768,1366,7.082316666666666,
31,default,block1,jon,ai,0.67,8151,prove,9,prove,C,[],37,Yes,,Male,English,Chrome,Windows,768,1366,7.082316666666666,
31,default,block1,emma,ai,0.63,9048,admit,10,admit,C,[],37,Yes,,Male,English,Chrome,Windows,768,1366,7.082316666666666,
31,default,block1,charley,ai,0.61,6816,acknowledge,11,acknowledge,C,[],37,Yes,,Male,English,Chrome,Windows,768,1366,7.082316666666666,
31,default,block1,pizza,ai,1,4272,MC,12,MC,MC,[],37,Yes,,Male,English,Chrome,Windows,768,1366,7.082316666666666,
31,default,block1,zoe,ai,0.39,11600,confess,13,confess,C,[],37,Yes,,Male,English,Chrome,Windows,768,1366,7.082316666666666,
31,default,block1,hat,ai,1,4344,MC,14,MC,MC,[],37,Yes,,Male,English,Chrome,Windows,768,1366,7.082316666666666,
31,default,block1,frank,ai,0.38,5153,say,15,say,C,[],37,Yes,,Male,English,Chrome,Windows,768,1366,7.082316666666666,
31,default,block1,tony,ai,0.54,5975,confirm,16,confirm,C,[],37,Yes,,Male,English,Chrome,Windows,768,1366,7.082316666666666,
31,default,block1,jackson,ai,0.49,6296,demonstrate,17,demonstrate,C,[],37,Yes,,Male,English,Chrome,Windows,768,1366,7.082316666666666,
31,default,block1,josie,ai,0.51,5416,hear,18,hear,C,[],37,Yes,,Male,English,Chrome,Windows,768,1366,7.082316666666666,
31,default,block1,sophia,ai,0.49,7072,announce,19,announce,C,[],37,Yes,,Male,English,Chrome,Windows,768,1366,7.082316666666666,
31,default,block1,jayden,ai,0.5,7280,discover,20,discover,C,[],37,Yes,,Male,English,Chrome,Windows,768,1366,7.082316666666666,
31,default,block1,julian,ai,0.5,5144,reveal,21,reveal,C,[],37,Yes,,Male,English,Chrome,Windows,768,1366,7.082316666666666,
31,default,block1,olivia,ai,0.23,9112,pretend,22,pretend,C,[],37,Yes,,Male,English,Chrome,Windows,768,1366,7.082316666666666,
31,default,block1,owen,ai,0.62,9544,establish,23,establish,C,[],37,Yes,,Male,English,Chrome,Windows,768,1366,7.082316666666666,
31,default,block1,mia,ai,0.81,6839,see,24,see,C,[],37,Yes,,Male,English,Chrome,Windows,768,1366,7.082316666666666,
31,default,block1,emily,ai,0.18,7617,inform,25,inform,C,[],37,Yes,,Male,English,Chrome,Windows,768,1366,7.082316666666666,
31,default,block1,isabella,ai,0.84,9448,be_right,26,be_right,C,[],37,Yes,,Male,English,Chrome,Windows,768,1366,7.082316666666666,
31,default,block1,mary,ai,0.47,6343,know,27,know,C,[],37,Yes,,Male,English,Chrome,Windows,768,1366,7.082316666666666,
31,default,block1,ballet,ai,1,19063,MC,28,MC,MC,[],37,Yes,,Male,English,Chrome,Windows,768,1366,7.082316666666666,
31,default,block1,garage,ai,1,4239,MC,29,MC,MC,[],37,Yes,,Male,English,Chrome,Windows,768,1366,7.082316666666666,
31,default,block1,danny,ai,0.32,5360,be_annoyed,30,be_annoyed,C,[],37,Yes,,Male,English,Chrome,Windows,768,1366,7.082316666666666,
31,default,block2,jackson,projective,0,8575,demonstrate,32,demonstrate,C,[],37,Yes,,Male,English,Chrome,Windows,768,1366,7.082316666666666,
31,default,block2,grace,projective,0,5896,suggest,33,suggest,C,[],37,Yes,,Male,English,Chrome,Windows,768,1366,7.082316666666666,
31,default,block2,pizza,projective,1,2936,MC,34,MC,MC,[],37,Yes,,Male,English,Chrome,Windows,768,1366,7.082316666666666,
31,default,block2,josh,projective,0.39,6776,think,35,think,C,[],37,Yes,,Male,English,Chrome,Windows,768,1366,7.082316666666666,
31,default,block2,hat,projective,1,3352,MC,36,MC,MC,[],37,Yes,,Male,English,Chrome,Windows,768,1366,7.082316666666666,
31,default,block2,emily,projective,0.36,4336,inform,37,inform,C,[],37,Yes,,Male,English,Chrome,Windows,768,1366,7.082316666666666,
31,default,block2,olivia,projective,0.23,5384,pretend,38,pretend,C,[],37,Yes,,Male,English,Chrome,Windows,768,1366,7.082316666666666,
31,default,block2,jayden,projective,0,5272,discover,39,discover,C,[],37,Yes,,Male,English,Chrome,Windows,768,1366,7.082316666666666,
31,default,block2,tony,projective,0.43,6032,confirm,40,confirm,C,[],37,Yes,,Male,English,Chrome,Windows,768,1366,7.082316666666666,
31,default,block2,sophia,projective,0.32,3984,announce,41,announce,C,[],37,Yes,,Male,English,Chrome,Windows,768,1366,7.082316666666666,
31,default,block2,julian,projective,0.23,3280,reveal,42,reveal,C,[],37,Yes,,Male,English,Chrome,Windows,768,1366,7.082316666666666,
31,default,block2,isabella,projective,0.06,3728,be_right,43,be_right,C,[],37,Yes,,Male,English,Chrome,Windows,768,1366,7.082316666666666,
31,default,block2,kids,projective,1,3424,MC,44,MC,MC,[],37,Yes,,Male,English,Chrome,Windows,768,1366,7.082316666666666,
31,default,block2,charley,projective,0.23,4128,acknowledge,45,acknowledge,C,[],37,Yes,,Male,English,Chrome,Windows,768,1366,7.082316666666666,
31,default,block2,danny,projective,0.93,7160,be_annoyed,46,be_annoyed,C,[],37,Yes,,Male,English,Chrome,Windows,768,1366,7.082316666666666,
31,default,block2,garage,projective,1,2759,MC,47,MC,MC,[],37,Yes,,Male,English,Chrome,Windows,768,1366,7.082316666666666,
31,default,block2,frank,projective,0.36,4449,say,48,say,C,[],37,Yes,,Male,English,Chrome,Windows,768,1366,7.082316666666666,
31,default,block2,zoe,projective,0.56,10487,confess,49,confess,C,[],37,Yes,,Male,English,Chrome,Windows,768,1366,7.082316666666666,
31,default,block2,owen,projective,0.31,4873,establish,50,establish,C,[],37,Yes,,Male,English,Chrome,Windows,768,1366,7.082316666666666,
31,default,block2,mia,projective,0.55,4415,see,51,see,C,[],37,Yes,,Male,English,Chrome,Windows,768,1366,7.082316666666666,
31,default,block2,ballet,projective,1,3288,MC,52,MC,MC,[],37,Yes,,Male,English,Chrome,Windows,768,1366,7.082316666666666,
31,default,block2,emma,projective,0.59,6247,admit,53,admit,C,[],37,Yes,,Male,English,Chrome,Windows,768,1366,7.082316666666666,
31,default,block2,muffins,projective,1,4143,MC,54,MC,MC,[],37,Yes,,Male,English,Chrome,Windows,768,1366,7.082316666666666,
31,default,block2,josie,projective,0.77,6657,hear,55,hear,C,[],37,Yes,,Male,English,Chrome,Windows,768,1366,7.082316666666666,
31,default,block2,mary,projective,0.91,4280,know,56,know,C,[],37,Yes,,Male,English,Chrome,Windows,768,1366,7.082316666666666,
31,default,block2,jon,projective,0.64,4343,prove,57,prove,C,[],37,Yes,,Male,English,Chrome,Windows,768,1366,7.082316666666666,
36,default,block1,emma,ai,0.94,8218,inform,5,inform,C,[],50,Yes,N/A,Male,English,Chrome,Windows,720,1280,4.8270333333333335,
36,default,block1,frank,ai,0.99,6947,admit,6,admit,C,[],50,Yes,N/A,Male,English,Chrome,Windows,720,1280,4.8270333333333335,
36,default,block1,sophia,ai,0.96,5780,think,7,think,C,[],50,Yes,N/A,Male,English,Chrome,Windows,720,1280,4.8270333333333335,
36,default,block1,julian,ai,0.98,6932,hear,8,hear,C,[],50,Yes,N/A,Male,English,Chrome,Windows,720,1280,4.8270333333333335,
36,default,block1,jon,ai,0.98,6743,confess,9,confess,C,[],50,Yes,N/A,Male,English,Chrome,Windows,720,1280,4.8270333333333335,
36,default,block1,garage,ai,0.98,4094,MC,10,MC,MC,[],50,Yes,N/A,Male,English,Chrome,Windows,720,1280,4.8270333333333335,
36,default,block1,muffins,ai,0.98,4524,MC,11,MC,MC,[],50,Yes,N/A,Male,English,Chrome,Windows,720,1280,4.8270333333333335,
36,default,block1,mary,ai,0.98,7633,prove,12,prove,C,[],50,Yes,N/A,Male,English,Chrome,Windows,720,1280,4.8270333333333335,
36,default,block1,pizza,ai,0.97,5315,MC,13,MC,MC,[],50,Yes,N/A,Male,English,Chrome,Windows,720,1280,4.8270333333333335,
36,default,block1,grace,ai,1,5806,know,14,know,C,[],50,Yes,N/A,Male,English,Chrome,Windows,720,1280,4.8270333333333335,
36,default,block1,tony,ai,0,12280,be_annoyed,15,be_annoyed,C,[],50,Yes,N/A,Male,English,Chrome,Windows,720,1280,4.8270333333333335,
36,default,block1,josie,ai,0.02,6041,pretend,16,pretend,C,[],50,Yes,N/A,Male,English,Chrome,Windows,720,1280,4.8270333333333335,
36,default,block1,josh,ai,1,6889,reveal,17,reveal,C,[],50,Yes,N/A,Male,English,Chrome,Windows,720,1280,4.8270333333333335,
36,default,block1,danny,ai,0,6421,say,18,say,C,[],50,Yes,N/A,Male,English,Chrome,Windows,720,1280,4.8270333333333335,
36,default,block1,jayden,ai,1,3369,confirm,19,confirm,C,[],50,Yes,N/A,Male,English,Chrome,Windows,720,1280,4.8270333333333335,
36,default,block1,owen,ai,0.96,5417,establish,20,establish,C,[],50,Yes,N/A,Male,English,Chrome,Windows,720,1280,4.8270333333333335,
36,default,block1,zoe,ai,1,8576,be_right,21,be_right,C,[],50,Yes,N/A,Male,English,Chrome,Windows,720,1280,4.8270333333333335,
36,default,block1,kids,ai,1,5637,MC,22,MC,MC,[],50,Yes,N/A,Male,English,Chrome,Windows,720,1280,4.8270333333333335,
36,default,block1,hat,ai,0.95,3051,MC,23,MC,MC,[],50,Yes,N/A,Male,English,Chrome,Windows,720,1280,4.8270333333333335,
36,default,block1,mia,ai,0.03,9667,announce,24,announce,C,[],50,Yes,N/A,Male,English,Chrome,Windows,720,1280,4.8270333333333335,
36,default,block1,jackson,ai,0.03,4874,suggest,25,suggest,C,[],50,Yes,N/A,Male,English,Chrome,Windows,720,1280,4.8270333333333335,
36,default,block1,charley,ai,0.04,6138,demonstrate,26,demonstrate,C,[],50,Yes,N/A,Male,English,Chrome,Windows,720,1280,4.8270333333333335,
36,default,block1,ballet,ai,0.97,3888,MC,27,MC,MC,[],50,Yes,N/A,Male,English,Chrome,Windows,720,1280,4.8270333333333335,
36,default,block1,olivia,ai,0,4109,see,28,see,C,[],50,Yes,N/A,Male,English,Chrome,Windows,720,1280,4.8270333333333335,
36,default,block1,isabella,ai,0.02,4841,acknowledge,29,acknowledge,C,[],50,Yes,N/A,Male,English,Chrome,Windows,720,1280,4.8270333333333335,
36,default,block1,emily,ai,0.04,2688,discover,30,discover,C,[],50,Yes,N/A,Male,English,Chrome,Windows,720,1280,4.8270333333333335,
36,default,block2,garage,projective,0.94,6809,MC,32,MC,MC,[],50,Yes,N/A,Male,English,Chrome,Windows,720,1280,4.8270333333333335,
36,default,block2,isabella,projective,0.98,8005,acknowledge,33,acknowledge,C,[],50,Yes,N/A,Male,English,Chrome,Windows,720,1280,4.8270333333333335,
36,default,block2,jackson,projective,0.96,5449,suggest,34,suggest,C,[],50,Yes,N/A,Male,English,Chrome,Windows,720,1280,4.8270333333333335,
36,default,block2,emily,projective,0.95,4952,discover,35,discover,C,[],50,Yes,N/A,Male,English,Chrome,Windows,720,1280,4.8270333333333335,
36,default,block2,josie,projective,0.04,7553,pretend,36,pretend,C,[],50,Yes,N/A,Male,English,Chrome,Windows,720,1280,4.8270333333333335,
36,default,block2,frank,projective,0.97,4180,admit,37,admit,C,[],50,Yes,N/A,Male,English,Chrome,Windows,720,1280,4.8270333333333335,
36,default,block2,hat,projective,0.91,2586,MC,38,MC,MC,[],50,Yes,N/A,Male,English,Chrome,Windows,720,1280,4.8270333333333335,
36,default,block2,tony,projective,0,6122,be_annoyed,39,be_annoyed,C,[],50,Yes,N/A,Male,English,Chrome,Windows,720,1280,4.8270333333333335,
36,default,block2,owen,projective,0.01,7530,establish,40,establish,C,[],50,Yes,N/A,Male,English,Chrome,Windows,720,1280,4.8270333333333335,
36,default,block2,jayden,projective,0.01,3517,confirm,41,confirm,C,[],50,Yes,N/A,Male,English,Chrome,Windows,720,1280,4.8270333333333335,
36,default,block2,muffins,projective,1,3988,MC,42,MC,MC,[],50,Yes,N/A,Male,English,Chrome,Windows,720,1280,4.8270333333333335,
36,default,block2,grace,projective,0.01,2998,know,43,know,C,[],50,Yes,N/A,Male,English,Chrome,Windows,720,1280,4.8270333333333335,
36,default,block2,danny,projective,0.01,2442,say,44,say,C,[],50,Yes,N/A,Male,English,Chrome,Windows,720,1280,4.8270333333333335,
36,default,block2,zoe,projective,0,3267,be_right,45,be_right,C,[],50,Yes,N/A,Male,English,Chrome,Windows,720,1280,4.8270333333333335,
36,default,block2,emma,projective,0.01,3092,inform,46,inform,C,[],50,Yes,N/A,Male,English,Chrome,Windows,720,1280,4.8270333333333335,
36,default,block2,pizza,projective,1,2675,MC,47,MC,MC,[],50,Yes,N/A,Male,English,Chrome,Windows,720,1280,4.8270333333333335,
36,default,block2,julian,projective,0.05,2989,hear,48,hear,C,[],50,Yes,N/A,Male,English,Chrome,Windows,720,1280,4.8270333333333335,
36,default,block2,charley,projective,0.01,3742,demonstrate,49,demonstrate,C,[],50,Yes,N/A,Male,English,Chrome,Windows,720,1280,4.8270333333333335,
36,default,block2,ballet,projective,0.96,2100,MC,50,MC,MC,[],50,Yes,N/A,Male,English,Chrome,Windows,720,1280,4.8270333333333335,
36,default,block2,josh,projective,0.05,1700,reveal,51,reveal,C,[],50,Yes,N/A,Male,English,Chrome,Windows,720,1280,4.8270333333333335,
36,default,block2,sophia,projective,0.02,2558,think,52,think,C,[],50,Yes,N/A,Male,English,Chrome,Windows,720,1280,4.8270333333333335,
36,default,block2,olivia,projective,0,6172,see,53,see,C,[],50,Yes,N/A,Male,English,Chrome,Windows,720,1280,4.8270333333333335,
36,default,block2,mia,projective,0,4157,announce,54,announce,C,[],50,Yes,N/A,Male,English,Chrome,Windows,720,1280,4.8270333333333335,
36,default,block2,jon,projective,0,4796,confess,55,confess,C,[],50,Yes,N/A,Male,English,Chrome,Windows,720,1280,4.8270333333333335,
36,default,block2,kids,projective,1,2295,MC,56,MC,MC,[],50,Yes,N/A,Male,English,Chrome,Windows,720,1280,4.8270333333333335,
36,default,block2,mary,projective,0,2112,prove,57,prove,C,[],50,Yes,N/A,Male,English,Chrome,Windows,720,1280,4.8270333333333335,
38,default,block1,jayden,ai,0,18550,know,5,know,C,[],27,Yes,It's interesting how the same sentence structure can have wildly different meanings and implications! I found this fascinating. Thank you.,Other,English,Chrome,Windows,1440,2560,10.4611,
38,default,block1,owen,ai,0,20086,acknowledge,6,acknowledge,C,[],27,Yes,It's interesting how the same sentence structure can have wildly different meanings and implications! I found this fascinating. Thank you.,Other,English,Chrome,Windows,1440,2560,10.4611,
38,default,block1,charley,ai,0,8413,discover,7,discover,C,[],27,Yes,It's interesting how the same sentence structure can have wildly different meanings and implications! I found this fascinating. Thank you.,Other,English,Chrome,Windows,1440,2560,10.4611,
38,default,block1,pizza,ai,1,7955,MC,8,MC,MC,[],27,Yes,It's interesting how the same sentence structure can have wildly different meanings and implications! I found this fascinating. Thank you.,Other,English,Chrome,Windows,1440,2560,10.4611,
38,default,block1,grace,ai,0,13242,pretend,9,pretend,C,[],27,Yes,It's interesting how the same sentence structure can have wildly different meanings and implications! I found this fascinating. Thank you.,Other,English,Chrome,Windows,1440,2560,10.4611,
38,default,block1,danny,ai,0,14580,confess,10,confess,C,[],27,Yes,It's interesting how the same sentence structure can have wildly different meanings and implications! I found this fascinating. Thank you.,Other,English,Chrome,Windows,1440,2560,10.4611,
38,default,block1,zoe,ai,0,18308,announce,11,announce,C,[],27,Yes,It's interesting how the same sentence structure can have wildly different meanings and implications! I found this fascinating. Thank you.,Other,English,Chrome,Windows,1440,2560,10.4611,
38,default,block1,isabella,ai,0,16660,hear,12,hear,C,[],27,Yes,It's interesting how the same sentence structure can have wildly different meanings and implications! I found this fascinating. Thank you.,Other,English,Chrome,Windows,1440,2560,10.4611,
38,default,block1,frank,ai,0,13910,suggest,13,suggest,C,[],27,Yes,It's interesting how the same sentence structure can have wildly different meanings and implications! I found this fascinating. Thank you.,Other,English,Chrome,Windows,1440,2560,10.4611,
38,default,block1,tony,ai,0,8711,prove,14,prove,C,[],27,Yes,It's interesting how the same sentence structure can have wildly different meanings and implications! I found this fascinating. Thank you.,Other,English,Chrome,Windows,1440,2560,10.4611,
38,default,block1,hat,ai,1,9171,MC,15,MC,MC,[],27,Yes,It's interesting how the same sentence structure can have wildly different meanings and implications! I found this fascinating. Thank you.,Other,English,Chrome,Windows,1440,2560,10.4611,
38,default,block1,kids,ai,1,5346,MC,16,MC,MC,[],27,Yes,It's interesting how the same sentence structure can have wildly different meanings and implications! I found this fascinating. Thank you.,Other,English,Chrome,Windows,1440,2560,10.4611,
38,default,block1,olivia,ai,0,7763,think,17,think,C,[],27,Yes,It's interesting how the same sentence structure can have wildly different meanings and implications! I found this fascinating. Thank you.,Other,English,Chrome,Windows,1440,2560,10.4611,
38,default,block1,mia,ai,0,5694,say,18,say,C,[],27,Yes,It's interesting how the same sentence structure can have wildly different meanings and implications! I found this fascinating. Thank you.,Other,English,Chrome,Windows,1440,2560,10.4611,
38,default,block1,julian,ai,0,6081,see,19,see,C,[],27,Yes,It's interesting how the same sentence structure can have wildly different meanings and implications! I found this fascinating. Thank you.,Other,English,Chrome,Windows,1440,2560,10.4611,
38,default,block1,mary,ai,0,4791,admit,20,admit,C,[],27,Yes,It's interesting how the same sentence structure can have wildly different meanings and implications! I found this fascinating. Thank you.,Other,English,Chrome,Windows,1440,2560,10.4611,
38,default,block1,muffins,ai,1,5195,MC,21,MC,MC,[],27,Yes,It's interesting how the same sentence structure can have wildly different meanings and implications! I found this fascinating. Thank you.,Other,English,Chrome,Windows,1440,2560,10.4611,
38,default,block1,jackson,ai,0,5001,demonstrate,22,demonstrate,C,[],27,Yes,It's interesting how the same sentence structure can have wildly different meanings and implications! I found this fascinating. Thank you.,Other,English,Chrome,Windows,1440,2560,10.4611,
38,default,block1,emma,ai,0,5652,be_annoyed,23,be_annoyed,C,[],27,Yes,It's interesting how the same sentence structure can have wildly different meanings and implications! I found this fascinating. Thank you.,Other,English,Chrome,Windows,1440,2560,10.4611,
38,default,block1,josh,ai,0.49,18407,be_right,24,be_right,C,[],27,Yes,It's interesting how the same sentence structure can have wildly different meanings and implications! I found this fascinating. Thank you.,Other,English,Chrome,Windows,1440,2560,10.4611,
38,default,block1,ballet,ai,1,5219,MC,25,MC,MC,[],27,Yes,It's interesting how the same sentence structure can have wildly different meanings and implications! I found this fascinating. Thank you.,Other,English,Chrome,Windows,1440,2560,10.4611,
38,default,block1,josie,ai,0,30682,inform,26,inform,C,[],27,Yes,It's interesting how the same sentence structure can have wildly different meanings and implications! I found this fascinating. Thank you.,Other,English,Chrome,Windows,1440,2560,10.4611,
38,default,block1,jon,ai,0,5058,reveal,27,reveal,C,[],27,Yes,It's interesting how the same sentence structure can have wildly different meanings and implications! I found this fascinating. Thank you.,Other,English,Chrome,Windows,1440,2560,10.4611,
38,default,block1,emily,ai,0,7023,confirm,28,confirm,C,[],27,Yes,It's interesting how the same sentence structure can have wildly different meanings and implications! I found this fascinating. Thank you.,Other,English,Chrome,Windows,1440,2560,10.4611,
38,default,block1,garage,ai,1,4690,MC,29,MC,MC,[],27,Yes,It's interesting how the same sentence structure can have wildly different meanings and implications! I found this fascinating. Thank you.,Other,English,Chrome,Windows,1440,2560,10.4611,
38,default,block1,sophia,ai,0,5679,establish,30,establish,C,[],27,Yes,It's interesting how the same sentence structure can have wildly different meanings and implications! I found this fascinating. Thank you.,Other,English,Chrome,Windows,1440,2560,10.4611,
38,default,block2,josie,projective,1,14772,inform,32,inform,C,[],27,Yes,It's interesting how the same sentence structure can have wildly different meanings and implications! I found this fascinating. Thank you.,Other,English,Chrome,Windows,1440,2560,10.4611,
38,default,block2,frank,projective,0,16958,suggest,33,suggest,C,[],27,Yes,It's interesting how the same sentence structure can have wildly different meanings and implications! I found this fascinating. Thank you.,Other,English,Chrome,Windows,1440,2560,10.4611,
38,default,block2,emily,projective,0.7,14711,confirm,34,confirm,C,[],27,Yes,It's interesting how the same sentence structure can have wildly different meanings and implications! I found this fascinating. Thank you.,Other,English,Chrome,Windows,1440,2560,10.4611,
38,default,block2,kids,projective,1,6238,MC,35,MC,MC,[],27,Yes,It's interesting how the same sentence structure can have wildly different meanings and implications! I found this fascinating. Thank you.,Other,English,Chrome,Windows,1440,2560,10.4611,
38,default,block2,muffins,projective,1,3909,MC,36,MC,MC,[],27,Yes,It's interesting how the same sentence structure can have wildly different meanings and implications! I found this fascinating. Thank you.,Other,English,Chrome,Windows,1440,2560,10.4611,
38,default,block2,isabella,projective,1,8253,hear,37,hear,C,[],27,Yes,It's interesting how the same sentence structure can have wildly different meanings and implications! I found this fascinating. Thank you.,Other,English,Chrome,Windows,1440,2560,10.4611,
38,default,block2,olivia,projective,0.5,12372,think,38,think,C,[],27,Yes,It's interesting how the same sentence structure can have wildly different meanings and implications! I found this fascinating. Thank you.,Other,English,Chrome,Windows,1440,2560,10.4611,
38,default,block2,jon,projective,0.86,7763,reveal,39,reveal,C,[],27,Yes,It's interesting how the same sentence structure can have wildly different meanings and implications! I found this fascinating. Thank you.,Other,English,Chrome,Windows,1440,2560,10.4611,
38,default,block2,grace,projective,0.25,8519,pretend,40,pretend,C,[],27,Yes,It's interesting how the same sentence structure can have wildly different meanings and implications! I found this fascinating. Thank you.,Other,English,Chrome,Windows,1440,2560,10.4611,
38,default,block2,charley,projective,0.81,7558,discover,41,discover,C,[],27,Yes,It's interesting how the same sentence structure can have wildly different meanings and implications! I found this fascinating. Thank you.,Other,English,Chrome,Windows,1440,2560,10.4611,
38,default,block2,hat,projective,1,3190,MC,42,MC,MC,[],27,Yes,It's interesting how the same sentence structure can have wildly different meanings and implications! I found this fascinating. Thank you.,Other,English,Chrome,Windows,1440,2560,10.4611,
38,default,block2,garage,projective,1,2853,MC,43,MC,MC,[],27,Yes,It's interesting how the same sentence structure can have wildly different meanings and implications! I found this fascinating. Thank you.,Other,English,Chrome,Windows,1440,2560,10.4611,
38,default,block2,julian,projective,0.88,6031,see,44,see,C,[],27,Yes,It's interesting how the same sentence structure can have wildly different meanings and implications! I found this fascinating. Thank you.,Other,English,Chrome,Windows,1440,2560,10.4611,
38,default,block2,mia,projective,0.5,9736,say,45,say,C,[],27,Yes,It's interesting how the same sentence structure can have wildly different meanings and implications! I found this fascinating. Thank you.,Other,English,Chrome,Windows,1440,2560,10.4611,
38,default,block2,tony,projective,0.74,13245,prove,46,prove,C,[],27,Yes,It's interesting how the same sentence structure can have wildly different meanings and implications! I found this fascinating. Thank you.,Other,English,Chrome,Windows,1440,2560,10.4611,
38,default,block2,emma,projective,0.86,8065,be_annoyed,47,be_annoyed,C,[],27,Yes,It's interesting how the same sentence structure can have wildly different meanings and implications! I found this fascinating. Thank you.,Other,English,Chrome,Windows,1440,2560,10.4611,
38,default,block2,sophia,projective,0.73,11161,establish,48,establish,C,[],27,Yes,It's interesting how the same sentence structure can have wildly different meanings and implications! I found this fascinating. Thank you.,Other,English,Chrome,Windows,1440,2560,10.4611,
38,default,block2,owen,projective,0.87,7504,acknowledge,49,acknowledge,C,[],27,Yes,It's interesting how the same sentence structure can have wildly different meanings and implications! I found this fascinating. Thank you.,Other,English,Chrome,Windows,1440,2560,10.4611,
38,default,block2,mary,projective,0.88,9061,admit,50,admit,C,[],27,Yes,It's interesting how the same sentence structure can have wildly different meanings and implications! I found this fascinating. Thank you.,Other,English,Chrome,Windows,1440,2560,10.4611,
38,default,block2,jayden,projective,1,5387,know,51,know,C,[],27,Yes,It's interesting how the same sentence structure can have wildly different meanings and implications! I found this fascinating. Thank you.,Other,English,Chrome,Windows,1440,2560,10.4611,
38,default,block2,pizza,projective,1,2938,MC,52,MC,MC,[],27,Yes,It's interesting how the same sentence structure can have wildly different meanings and implications! I found this fascinating. Thank you.,Other,English,Chrome,Windows,1440,2560,10.4611,
38,default,block2,josh,projective,0.61,8309,be_right,53,be_right,C,[],27,Yes,It's interesting how the same sentence structure can have wildly different meanings and implications! I found this fascinating. Thank you.,Other,English,Chrome,Windows,1440,2560,10.4611,
38,default,block2,danny,projective,0.57,10698,confess,54,confess,C,[],27,Yes,It's interesting how the same sentence structure can have wildly different meanings and implications! I found this fascinating. Thank you.,Other,English,Chrome,Windows,1440,2560,10.4611,
38,default,block2,ballet,projective,1,2748,MC,55,MC,MC,[],27,Yes,It's interesting how the same sentence structure can have wildly different meanings and implications! I found this fascinating. Thank you.,Other,English,Chrome,Windows,1440,2560,10.4611,
38,default,block2,jackson,projective,0.35,8186,demonstrate,56,demonstrate,C,[],27,Yes,It's interesting how the same sentence structure can have wildly different meanings and implications! I found this fascinating. Thank you.,Other,English,Chrome,Windows,1440,2560,10.4611,
38,default,block2,zoe,projective,0.5,10449,announce,57,announce,C,[],27,Yes,It's interesting how the same sentence structure can have wildly different meanings and implications! I found this fascinating. Thank you.,Other,English,Chrome,Windows,1440,2560,10.4611,
35,default,block1,sophia,ai,0,11583,see,5,see,C,[],24,Yes,,Female,English,Chrome,Windows,1024,1280,10.203333333333331,
35,default,block1,isabella,ai,1,19383,acknowledge,6,acknowledge,C,[],24,Yes,,Female,English,Chrome,Windows,1024,1280,10.203333333333331,
35,default,block1,olivia,ai,0.52,11447,be_right,7,be_right,C,[],24,Yes,,Female,English,Chrome,Windows,1024,1280,10.203333333333331,
35,default,block1,owen,ai,0.97,12200,hear,8,hear,C,[],24,Yes,,Female,English,Chrome,Windows,1024,1280,10.203333333333331,
35,default,block1,hat,ai,1,8064,MC,9,MC,MC,[],24,Yes,,Female,English,Chrome,Windows,1024,1280,10.203333333333331,
35,default,block1,jackson,ai,0.03,5975,discover,10,discover,C,[],24,Yes,,Female,English,Chrome,Windows,1024,1280,10.203333333333331,
35,default,block1,pizza,ai,0.98,6111,MC,11,MC,MC,[],24,Yes,,Female,English,Chrome,Windows,1024,1280,10.203333333333331,
35,default,block1,danny,ai,0.02,14448,inform,12,inform,C,[],24,Yes,,Female,English,Chrome,Windows,1024,1280,10.203333333333331,
35,default,block1,garage,ai,0.98,9944,MC,13,MC,MC,[],24,Yes,,Female,English,Chrome,Windows,1024,1280,10.203333333333331,
35,default,block1,frank,ai,0.03,11560,be_annoyed,14,be_annoyed,C,[],24,Yes,,Female,English,Chrome,Windows,1024,1280,10.203333333333331,
35,default,block1,ballet,ai,0.98,4808,MC,15,MC,MC,[],24,Yes,,Female,English,Chrome,Windows,1024,1280,10.203333333333331,
35,default,block1,emily,ai,0.05,6743,think,16,think,C,[],24,Yes,,Female,English,Chrome,Windows,1024,1280,10.203333333333331,
35,default,block1,tony,ai,0.03,8351,prove,17,prove,C,[],24,Yes,,Female,English,Chrome,Windows,1024,1280,10.203333333333331,
35,default,block1,mary,ai,0.51,6960,admit,18,admit,C,[],24,Yes,,Female,English,Chrome,Windows,1024,1280,10.203333333333331,
35,default,block1,josie,ai,0.51,15192,reveal,19,reveal,C,[],24,Yes,,Female,English,Chrome,Windows,1024,1280,10.203333333333331,
35,default,block1,julian,ai,0.98,53264,demonstrate,20,demonstrate,C,[],24,Yes,,Female,English,Chrome,Windows,1024,1280,10.203333333333331,
35,default,block1,jayden,ai,0.98,11991,confess,21,confess,C,[],24,Yes,,Female,English,Chrome,Windows,1024,1280,10.203333333333331,
35,default,block1,jon,ai,0.02,8992,confirm,22,confirm,C,[],24,Yes,,Female,English,Chrome,Windows,1024,1280,10.203333333333331,
35,default,block1,mia,ai,0.97,9912,announce,23,announce,C,[],24,Yes,,Female,English,Chrome,Windows,1024,1280,10.203333333333331,
35,default,block1,charley,ai,0.03,10935,say,24,say,C,[],24,Yes,,Female,English,Chrome,Windows,1024,1280,10.203333333333331,
35,default,block1,josh,ai,0.97,9776,establish,25,establish,C,[],24,Yes,,Female,English,Chrome,Windows,1024,1280,10.203333333333331,
35,default,block1,zoe,ai,0.02,6656,know,26,know,C,[],24,Yes,,Female,English,Chrome,Windows,1024,1280,10.203333333333331,
35,default,block1,grace,ai,0,15440,suggest,27,suggest,C,[],24,Yes,,Female,English,Chrome,Windows,1024,1280,10.203333333333331,
35,default,block1,muffins,ai,0.99,3575,MC,28,MC,MC,[],24,Yes,,Female,English,Chrome,Windows,1024,1280,10.203333333333331,
35,default,block1,emma,ai,0.03,7512,pretend,29,pretend,C,[],24,Yes,,Female,English,Chrome,Windows,1024,1280,10.203333333333331,
35,default,block1,kids,ai,0.98,4456,MC,30,MC,MC,[],24,Yes,,Female,English,Chrome,Windows,1024,1280,10.203333333333331,
35,default,block2,kids,projective,0.97,10054,MC,32,MC,MC,[],24,Yes,,Female,English,Chrome,Windows,1024,1280,10.203333333333331,
35,default,block2,ballet,projective,0.97,6288,MC,33,MC,MC,[],24,Yes,,Female,English,Chrome,Windows,1024,1280,10.203333333333331,
35,default,block2,zoe,projective,0.02,7424,know,34,know,C,[],24,Yes,,Female,English,Chrome,Windows,1024,1280,10.203333333333331,
35,default,block2,sophia,projective,0.04,7560,see,35,see,C,[],24,Yes,,Female,English,Chrome,Windows,1024,1280,10.203333333333331,
35,default,block2,garage,projective,0.98,5264,MC,36,MC,MC,[],24,Yes,,Female,English,Chrome,Windows,1024,1280,10.203333333333331,
35,default,block2,emma,projective,0.02,3632,pretend,37,pretend,C,[],24,Yes,,Female,English,Chrome,Windows,1024,1280,10.203333333333331,
35,default,block2,grace,projective,0.02,4504,suggest,38,suggest,C,[],24,Yes,,Female,English,Chrome,Windows,1024,1280,10.203333333333331,
35,default,block2,jackson,projective,0.01,3128,discover,39,discover,C,[],24,Yes,,Female,English,Chrome,Windows,1024,1280,10.203333333333331,
35,default,block2,muffins,projective,0.99,4880,MC,40,MC,MC,[],24,Yes,,Female,English,Chrome,Windows,1024,1280,10.203333333333331,
35,default,block2,jon,projective,0.01,5192,confirm,41,confirm,C,[],24,Yes,,Female,English,Chrome,Windows,1024,1280,10.203333333333331,
35,default,block2,tony,projective,0.03,5471,prove,42,prove,C,[],24,Yes,,Female,English,Chrome,Windows,1024,1280,10.203333333333331,
35,default,block2,isabella,projective,0.01,3432,acknowledge,43,acknowledge,C,[],24,Yes,,Female,English,Chrome,Windows,1024,1280,10.203333333333331,
35,default,block2,charley,projective,0.02,52512,say,44,say,C,[],24,Yes,,Female,English,Chrome,Windows,1024,1280,10.203333333333331,
35,default,block2,owen,projective,0.01,23767,hear,45,hear,C,[],24,Yes,,Female,English,Chrome,Windows,1024,1280,10.203333333333331,
35,default,block2,hat,projective,0.97,2808,MC,46,MC,MC,[],24,Yes,,Female,English,Chrome,Windows,1024,1280,10.203333333333331,
35,default,block2,josh,projective,0.03,1912,establish,47,establish,C,[],24,Yes,,Female,English,Chrome,Windows,1024,1280,10.203333333333331,
35,default,block2,frank,projective,0,2632,be_annoyed,48,be_annoyed,C,[],24,Yes,,Female,English,Chrome,Windows,1024,1280,10.203333333333331,
35,default,block2,pizza,projective,0.99,2560,MC,49,MC,MC,[],24,Yes,,Female,English,Chrome,Windows,1024,1280,10.203333333333331,
35,default,block2,mia,projective,0,3696,announce,50,announce,C,[],24,Yes,,Female,English,Chrome,Windows,1024,1280,10.203333333333331,
35,default,block2,emily,projective,0.01,4160,think,51,think,C,[],24,Yes,,Female,English,Chrome,Windows,1024,1280,10.203333333333331,
35,default,block2,olivia,projective,0.01,3744,be_right,52,be_right,C,[],24,Yes,,Female,English,Chrome,Windows,1024,1280,10.203333333333331,
35,default,block2,josie,projective,0.02,4272,reveal,53,reveal,C,[],24,Yes,,Female,English,Chrome,Windows,1024,1280,10.203333333333331,
35,default,block2,mary,projective,0.02,4744,admit,54,admit,C,[],24,Yes,,Female,English,Chrome,Windows,1024,1280,10.203333333333331,
35,default,block2,danny,projective,0.02,2984,inform,55,inform,C,[],24,Yes,,Female,English,Chrome,Windows,1024,1280,10.203333333333331,
35,default,block2,jayden,projective,0.03,1880,confess,56,confess,C,[],24,Yes,,Female,English,Chrome,Windows,1024,1280,10.203333333333331,
35,default,block2,julian,projective,0.02,1799,demonstrate,57,demonstrate,C,[],24,Yes,,Female,English,Chrome,Windows,1024,1280,10.203333333333331,
39,default,block1,hat,ai,0.94,20206,MC,5,MC,MC,[],23,Yes,,Female,English,Safari,an unknown OS,1180,820,7.66455,
39,default,block1,isabella,ai,0.04,13006,know,6,know,C,[],23,Yes,,Female,English,Safari,an unknown OS,1180,820,7.66455,
39,default,block1,kids,ai,0.97,7822,MC,7,MC,MC,[],23,Yes,,Female,English,Safari,an unknown OS,1180,820,7.66455,
39,default,block1,jackson,ai,0.06,11804,demonstrate,8,demonstrate,C,[],23,Yes,,Female,English,Safari,an unknown OS,1180,820,7.66455,
39,default,block1,emily,ai,0.03,8960,announce,9,announce,C,[],23,Yes,,Female,English,Safari,an unknown OS,1180,820,7.66455,
39,default,block1,sophia,ai,0.03,7348,confess,10,confess,C,[],23,Yes,,Female,English,Safari,an unknown OS,1180,820,7.66455,
39,default,block1,charley,ai,0.04,12523,suggest,11,suggest,C,[],23,Yes,,Female,English,Safari,an unknown OS,1180,820,7.66455,
39,default,block1,garage,ai,0.98,9576,MC,12,MC,MC,[],23,Yes,,Female,English,Safari,an unknown OS,1180,820,7.66455,
39,default,block1,emma,ai,0.04,7881,admit,13,admit,C,[],23,Yes,,Female,English,Safari,an unknown OS,1180,820,7.66455,
39,default,block1,frank,ai,0.97,12040,pretend,14,pretend,C,[],23,Yes,,Female,English,Safari,an unknown OS,1180,820,7.66455,
39,default,block1,julian,ai,0.03,7732,hear,15,hear,C,[],23,Yes,,Female,English,Safari,an unknown OS,1180,820,7.66455,
39,default,block1,josie,ai,0.03,6725,prove,16,prove,C,[],23,Yes,,Female,English,Safari,an unknown OS,1180,820,7.66455,
39,default,block1,zoe,ai,0.04,6290,be_annoyed,17,be_annoyed,C,[],23,Yes,,Female,English,Safari,an unknown OS,1180,820,7.66455,
39,default,block1,tony,ai,0.99,10108,see,18,see,C,[],23,Yes,,Female,English,Safari,an unknown OS,1180,820,7.66455,
39,default,block1,ballet,ai,0.98,4007,MC,19,MC,MC,[],23,Yes,,Female,English,Safari,an unknown OS,1180,820,7.66455,
39,default,block1,jayden,ai,0.04,9517,say,20,say,C,[],23,Yes,,Female,English,Safari,an unknown OS,1180,820,7.66455,
39,default,block1,danny,ai,0.03,4905,reveal,21,reveal,C,[],23,Yes,,Female,English,Safari,an unknown OS,1180,820,7.66455,
39,default,block1,muffins,ai,0.96,7194,MC,22,MC,MC,[],23,Yes,,Female,English,Safari,an unknown OS,1180,820,7.66455,
39,default,block1,mary,ai,0.05,13312,think,23,think,C,[],23,Yes,,Female,English,Safari,an unknown OS,1180,820,7.66455,
39,default,block1,jon,ai,0.97,5899,be_right,24,be_right,C,[],23,Yes,,Female,English,Safari,an unknown OS,1180,820,7.66455,
39,default,block1,pizza,ai,0.96,4707,MC,25,MC,MC,[],23,Yes,,Female,English,Safari,an unknown OS,1180,820,7.66455,
39,default,block1,owen,ai,0.03,8324,inform,26,inform,C,[],23,Yes,,Female,English,Safari,an unknown OS,1180,820,7.66455,
39,default,block1,mia,ai,0.03,7741,discover,27,discover,C,[],23,Yes,,Female,English,Safari,an unknown OS,1180,820,7.66455,
39,default,block1,olivia,ai,0.98,9574,acknowledge,28,acknowledge,C,[],23,Yes,,Female,English,Safari,an unknown OS,1180,820,7.66455,
39,default,block1,grace,ai,0.97,7333,confirm,29,confirm,C,[],23,Yes,,Female,English,Safari,an unknown OS,1180,820,7.66455,
39,default,block1,josh,ai,0.03,10115,establish,30,establish,C,[],23,Yes,,Female,English,Safari,an unknown OS,1180,820,7.66455,
39,default,block2,ballet,projective,0.99,3939,MC,32,MC,MC,[],23,Yes,,Female,English,Safari,an unknown OS,1180,820,7.66455,
39,default,block2,garage,projective,0.98,5252,MC,33,MC,MC,[],23,Yes,,Female,English,Safari,an unknown OS,1180,820,7.66455,
39,default,block2,charley,projective,0,7436,suggest,34,suggest,C,[],23,Yes,,Female,English,Safari,an unknown OS,1180,820,7.66455,
39,default,block2,mia,projective,0.06,9391,discover,35,discover,C,[],23,Yes,,Female,English,Safari,an unknown OS,1180,820,7.66455,
39,default,block2,pizza,projective,0.96,4308,MC,36,MC,MC,[],23,Yes,,Female,English,Safari,an unknown OS,1180,820,7.66455,
39,default,block2,tony,projective,0.03,8033,see,37,see,C,[],23,Yes,,Female,English,Safari,an unknown OS,1180,820,7.66455,
39,default,block2,grace,projective,0.63,7558,confirm,38,confirm,C,[],23,Yes,,Female,English,Safari,an unknown OS,1180,820,7.66455,
39,default,block2,jackson,projective,0.02,4357,demonstrate,39,demonstrate,C,[],23,Yes,,Female,English,Safari,an unknown OS,1180,820,7.66455,
39,default,block2,kids,projective,0.96,3557,MC,40,MC,MC,[],23,Yes,,Female,English,Safari,an unknown OS,1180,820,7.66455,
39,default,block2,emma,projective,0.69,6100,admit,41,admit,C,[],23,Yes,,Female,English,Safari,an unknown OS,1180,820,7.66455,
39,default,block2,owen,projective,0.02,4716,inform,42,inform,C,[],23,Yes,,Female,English,Safari,an unknown OS,1180,820,7.66455,
39,default,block2,danny,projective,0.03,6503,reveal,43,reveal,C,[],23,Yes,,Female,English,Safari,an unknown OS,1180,820,7.66455,
39,default,block2,sophia,projective,0.79,5571,confess,44,confess,C,[],23,Yes,,Female,English,Safari,an unknown OS,1180,820,7.66455,
39,default,block2,frank,projective,0.03,4816,pretend,45,pretend,C,[],23,Yes,,Female,English,Safari,an unknown OS,1180,820,7.66455,
39,default,block2,jon,projective,0.04,4091,be_right,46,be_right,C,[],23,Yes,,Female,English,Safari,an unknown OS,1180,820,7.66455,
39,default,block2,olivia,projective,0.96,4654,acknowledge,47,acknowledge,C,[],23,Yes,,Female,English,Safari,an unknown OS,1180,820,7.66455,
39,default,block2,mary,projective,0.05,4312,think,48,think,C,[],23,Yes,,Female,English,Safari,an unknown OS,1180,820,7.66455,
39,default,block2,muffins,projective,0.97,3583,MC,49,MC,MC,[],23,Yes,,Female,English,Safari,an unknown OS,1180,820,7.66455,
39,default,block2,jayden,projective,0.04,4483,say,50,say,C,[],23,Yes,,Female,English,Safari,an unknown OS,1180,820,7.66455,
39,default,block2,zoe,projective,0.97,5337,be_annoyed,51,be_annoyed,C,[],23,Yes,,Female,English,Safari,an unknown OS,1180,820,7.66455,
39,default,block2,josh,projective,0.02,4678,establish,52,establish,C,[],23,Yes,,Female,English,Safari,an unknown OS,1180,820,7.66455,
39,default,block2,josie,projective,0.05,32407,prove,53,prove,C,[],23,Yes,,Female,English,Safari,an unknown OS,1180,820,7.66455,
39,default,block2,emily,projective,0.05,3861,announce,54,announce,C,[],23,Yes,,Female,English,Safari,an unknown OS,1180,820,7.66455,
39,default,block2,isabella,projective,0.98,5591,know,55,know,C,[],23,Yes,,Female,English,Safari,an unknown OS,1180,820,7.66455,
39,default,block2,julian,projective,0.95,6187,hear,56,hear,C,[],23,Yes,,Female,English,Safari,an unknown OS,1180,820,7.66455,
39,default,block2,hat,projective,0.98,3432,MC,57,MC,MC,[],23,Yes,,Female,English,Safari,an unknown OS,1180,820,7.66455,
33,default,block1,hat,ai,1,11190,MC,5,MC,MC,[],19,Yes,,Male,English,Chrome,Windows,1080,1920,4.803633333333333,
33,default,block1,mary,ai,0,6700,see,6,see,C,[],19,Yes,,Male,English,Chrome,Windows,1080,1920,4.803633333333333,
33,default,block1,isabella,ai,0.2,9169,admit,7,admit,C,[],19,Yes,,Male,English,Chrome,Windows,1080,1920,4.803633333333333,
33,default,block1,jackson,ai,0.08,5438,prove,8,prove,C,[],19,Yes,,Male,English,Chrome,Windows,1080,1920,4.803633333333333,
33,default,block1,josie,ai,0,4446,confess,9,confess,C,[],19,Yes,,Male,English,Chrome,Windows,1080,1920,4.803633333333333,
33,default,block1,jon,ai,0.04,3789,establish,10,establish,C,[],19,Yes,,Male,English,Chrome,Windows,1080,1920,4.803633333333333,
33,default,block1,ballet,ai,1,3804,MC,11,MC,MC,[],19,Yes,,Male,English,Chrome,Windows,1080,1920,4.803633333333333,
33,default,block1,josh,ai,0,5459,confirm,12,confirm,C,[],19,Yes,,Male,English,Chrome,Windows,1080,1920,4.803633333333333,
33,default,block1,danny,ai,0.05,3343,acknowledge,13,acknowledge,C,[],19,Yes,,Male,English,Chrome,Windows,1080,1920,4.803633333333333,
33,default,block1,pizza,ai,1,3076,MC,14,MC,MC,[],19,Yes,,Male,English,Chrome,Windows,1080,1920,4.803633333333333,
33,default,block1,owen,ai,0.03,4263,be_annoyed,15,be_annoyed,C,[],19,Yes,,Male,English,Chrome,Windows,1080,1920,4.803633333333333,
33,default,block1,zoe,ai,0,4888,suggest,16,suggest,C,[],19,Yes,,Male,English,Chrome,Windows,1080,1920,4.803633333333333,
33,default,block1,emma,ai,0,2357,reveal,17,reveal,C,[],19,Yes,,Male,English,Chrome,Windows,1080,1920,4.803633333333333,
33,default,block1,charley,ai,0,2686,think,18,think,C,[],19,Yes,,Male,English,Chrome,Windows,1080,1920,4.803633333333333,
33,default,block1,emily,ai,0,4979,know,19,know,C,[],19,Yes,,Male,English,Chrome,Windows,1080,1920,4.803633333333333,
33,default,block1,sophia,ai,0.03,3370,pretend,20,pretend,C,[],19,Yes,,Male,English,Chrome,Windows,1080,1920,4.803633333333333,
33,default,block1,olivia,ai,0,4193,say,21,say,C,[],19,Yes,,Male,English,Chrome,Windows,1080,1920,4.803633333333333,
33,default,block1,frank,ai,0,2936,demonstrate,22,demonstrate,C,[],19,Yes,,Male,English,Chrome,Windows,1080,1920,4.803633333333333,
33,default,block1,grace,ai,0,3447,discover,23,discover,C,[],19,Yes,,Male,English,Chrome,Windows,1080,1920,4.803633333333333,
33,default,block1,muffins,ai,1,2095,MC,24,MC,MC,[],19,Yes,,Male,English,Chrome,Windows,1080,1920,4.803633333333333,
33,default,block1,jayden,ai,0,4116,hear,25,hear,C,[],19,Yes,,Male,English,Chrome,Windows,1080,1920,4.803633333333333,
33,default,block1,kids,ai,1,3898,MC,26,MC,MC,[],19,Yes,,Male,English,Chrome,Windows,1080,1920,4.803633333333333,
33,default,block1,garage,ai,1,1872,MC,27,MC,MC,[],19,Yes,,Male,English,Chrome,Windows,1080,1920,4.803633333333333,
33,default,block1,julian,ai,0,2868,be_right,28,be_right,C,[],19,Yes,,Male,English,Chrome,Windows,1080,1920,4.803633333333333,
33,default,block1,tony,ai,0,11349,inform,29,inform,C,[],19,Yes,,Male,English,Chrome,Windows,1080,1920,4.803633333333333,
33,default,block1,mia,ai,0.05,4616,announce,30,announce,C,[],19,Yes,,Male,English,Chrome,Windows,1080,1920,4.803633333333333,
33,default,block2,emily,projective,1,7944,know,32,know,C,[],19,Yes,,Male,English,Chrome,Windows,1080,1920,4.803633333333333,
33,default,block2,owen,projective,0.99,5458,be_annoyed,33,be_annoyed,C,[],19,Yes,,Male,English,Chrome,Windows,1080,1920,4.803633333333333,
33,default,block2,jackson,projective,0.19,5483,prove,34,prove,C,[],19,Yes,,Male,English,Chrome,Windows,1080,1920,4.803633333333333,
33,default,block2,sophia,projective,0.03,4454,pretend,35,pretend,C,[],19,Yes,,Male,English,Chrome,Windows,1080,1920,4.803633333333333,
33,default,block2,hat,projective,1,5939,MC,36,MC,MC,[],19,Yes,,Male,English,Chrome,Windows,1080,1920,4.803633333333333,
33,default,block2,grace,projective,1,4712,discover,37,discover,C,[],19,Yes,,Male,English,Chrome,Windows,1080,1920,4.803633333333333,
33,default,block2,pizza,projective,1,2897,MC,38,MC,MC,[],19,Yes,,Male,English,Chrome,Windows,1080,1920,4.803633333333333,
33,default,block2,ballet,projective,1,1917,MC,39,MC,MC,[],19,Yes,,Male,English,Chrome,Windows,1080,1920,4.803633333333333,
33,default,block2,josh,projective,0.02,5551,confirm,40,confirm,C,[],19,Yes,,Male,English,Chrome,Windows,1080,1920,4.803633333333333,
33,default,block2,olivia,projective,0.04,5202,say,41,say,C,[],19,Yes,,Male,English,Chrome,Windows,1080,1920,4.803633333333333,
33,default,block2,charley,projective,0,6963,think,42,think,C,[],19,Yes,,Male,English,Chrome,Windows,1080,1920,4.803633333333333,
33,default,block2,julian,projective,0.01,3432,be_right,43,be_right,C,[],19,Yes,,Male,English,Chrome,Windows,1080,1920,4.803633333333333,
33,default,block2,mia,projective,0.37,4593,announce,44,announce,C,[],19,Yes,,Male,English,Chrome,Windows,1080,1920,4.803633333333333,
33,default,block2,tony,projective,0.98,4084,inform,45,inform,C,[],19,Yes,,Male,English,Chrome,Windows,1080,1920,4.803633333333333,
33,default,block2,jon,projective,0.22,2779,establish,46,establish,C,[],19,Yes,,Male,English,Chrome,Windows,1080,1920,4.803633333333333,
33,default,block2,frank,projective,0.21,2557,demonstrate,47,demonstrate,C,[],19,Yes,,Male,English,Chrome,Windows,1080,1920,4.803633333333333,
33,default,block2,zoe,projective,0.27,3083,suggest,48,suggest,C,[],19,Yes,,Male,English,Chrome,Windows,1080,1920,4.803633333333333,
33,default,block2,garage,projective,1,2235,MC,49,MC,MC,[],19,Yes,,Male,English,Chrome,Windows,1080,1920,4.803633333333333,
33,default,block2,isabella,projective,0.83,5616,admit,50,admit,C,[],19,Yes,,Male,English,Chrome,Windows,1080,1920,4.803633333333333,
33,default,block2,emma,projective,0.49,3116,reveal,51,reveal,C,[],19,Yes,,Male,English,Chrome,Windows,1080,1920,4.803633333333333,
33,default,block2,danny,projective,1,4026,acknowledge,52,acknowledge,C,[],19,Yes,,Male,English,Chrome,Windows,1080,1920,4.803633333333333,
33,default,block2,kids,projective,1,1911,MC,53,MC,MC,[],19,Yes,,Male,English,Chrome,Windows,1080,1920,4.803633333333333,
33,default,block2,jayden,projective,0.85,4740,hear,54,hear,C,[],19,Yes,,Male,English,Chrome,Windows,1080,1920,4.803633333333333,
33,default,block2,mary,projective,0.86,5162,see,55,see,C,[],19,Yes,,Male,English,Chrome,Windows,1080,1920,4.803633333333333,
33,default,block2,muffins,projective,1,1787,MC,56,MC,MC,[],19,Yes,,Male,English,Chrome,Windows,1080,1920,4.803633333333333,
33,default,block2,josie,projective,0.33,9464,confess,57,confess,C,[],19,Yes,,Male,English,Chrome,Windows,1080,1920,4.803633333333333,
32,default,block1,julian,ai,1,60924,see,5,see,C,[],25,Yes,,Male,English,Chrome,Windows,1440,2560,7.170183333333333,
32,default,block1,jackson,ai,0.92,14267,acknowledge,6,acknowledge,C,[],25,Yes,,Male,English,Chrome,Windows,1440,2560,7.170183333333333,
32,default,block1,emma,ai,1,10544,think,7,think,C,[],25,Yes,,Male,English,Chrome,Windows,1440,2560,7.170183333333333,
32,default,block1,owen,ai,0.98,13743,hear,8,hear,C,[],25,Yes,,Male,English,Chrome,Windows,1440,2560,7.170183333333333,
32,default,block1,mia,ai,1,7805,confirm,9,confirm,C,[],25,Yes,,Male,English,Chrome,Windows,1440,2560,7.170183333333333,
32,default,block1,hat,ai,1,8785,MC,10,MC,MC,[],25,Yes,,Male,English,Chrome,Windows,1440,2560,7.170183333333333,
32,default,block1,mary,ai,1,33909,confess,11,confess,C,[],25,Yes,,Male,English,Chrome,Windows,1440,2560,7.170183333333333,
32,default,block1,olivia,ai,0,9915,be_annoyed,12,be_annoyed,C,[],25,Yes,,Male,English,Chrome,Windows,1440,2560,7.170183333333333,
32,default,block1,frank,ai,0,8309,say,13,say,C,[],25,Yes,,Male,English,Chrome,Windows,1440,2560,7.170183333333333,
32,default,block1,zoe,ai,0.02,3700,prove,14,prove,C,[],25,Yes,,Male,English,Chrome,Windows,1440,2560,7.170183333333333,
32,default,block1,muffins,ai,1,9316,MC,15,MC,MC,[],25,Yes,,Male,English,Chrome,Windows,1440,2560,7.170183333333333,
32,default,block1,sophia,ai,0,4578,discover,16,discover,C,[],25,Yes,,Male,English,Chrome,Windows,1440,2560,7.170183333333333,
32,default,block1,pizza,ai,0.95,3669,MC,17,MC,MC,[],25,Yes,,Male,English,Chrome,Windows,1440,2560,7.170183333333333,
32,default,block1,ballet,ai,0.98,2878,MC,18,MC,MC,[],25,Yes,,Male,English,Chrome,Windows,1440,2560,7.170183333333333,
32,default,block1,danny,ai,0.03,9069,suggest,19,suggest,C,[],25,Yes,,Male,English,Chrome,Windows,1440,2560,7.170183333333333,
32,default,block1,tony,ai,0.01,4470,announce,20,announce,C,[],25,Yes,,Male,English,Chrome,Windows,1440,2560,7.170183333333333,
32,default,block1,jayden,ai,0.07,4889,demonstrate,21,demonstrate,C,[],25,Yes,,Male,English,Chrome,Windows,1440,2560,7.170183333333333,
32,default,block1,isabella,ai,0,5717,inform,22,inform,C,[],25,Yes,,Male,English,Chrome,Windows,1440,2560,7.170183333333333,
32,default,block1,emily,ai,0.08,5142,admit,23,admit,C,[],25,Yes,,Male,English,Chrome,Windows,1440,2560,7.170183333333333,
32,default,block1,jon,ai,0.05,6835,establish,24,establish,C,[],25,Yes,,Male,English,Chrome,Windows,1440,2560,7.170183333333333,
32,default,block1,garage,ai,0.93,3945,MC,25,MC,MC,[],25,Yes,,Male,English,Chrome,Windows,1440,2560,7.170183333333333,
32,default,block1,josh,ai,0.05,5055,pretend,26,pretend,C,[],25,Yes,,Male,English,Chrome,Windows,1440,2560,7.170183333333333,
32,default,block1,grace,ai,0.08,4819,reveal,27,reveal,C,[],25,Yes,,Male,English,Chrome,Windows,1440,2560,7.170183333333333,
32,default,block1,kids,ai,0.91,3884,MC,28,MC,MC,[],25,Yes,,Male,English,Chrome,Windows,1440,2560,7.170183333333333,
32,default,block1,charley,ai,0.04,5033,be_right,29,be_right,C,[],25,Yes,,Male,English,Chrome,Windows,1440,2560,7.170183333333333,
32,default,block1,josie,ai,0,6161,know,30,know,C,[],25,Yes,,Male,English,Chrome,Windows,1440,2560,7.170183333333333,
32,default,block2,owen,projective,0.04,10846,hear,32,hear,C,[],25,Yes,,Male,English,Chrome,Windows,1440,2560,7.170183333333333,
32,default,block2,frank,projective,0.05,5122,say,33,say,C,[],25,Yes,,Male,English,Chrome,Windows,1440,2560,7.170183333333333,
32,default,block2,josh,projective,0.02,5775,pretend,34,pretend,C,[],25,Yes,,Male,English,Chrome,Windows,1440,2560,7.170183333333333,
32,default,block2,emily,projective,0.03,1448,admit,35,admit,C,[],25,Yes,,Male,English,Chrome,Windows,1440,2560,7.170183333333333,
32,default,block2,jackson,projective,0.03,1532,acknowledge,36,acknowledge,C,[],25,Yes,,Male,English,Chrome,Windows,1440,2560,7.170183333333333,
32,default,block2,grace,projective,0.06,1342,reveal,37,reveal,C,[],25,Yes,,Male,English,Chrome,Windows,1440,2560,7.170183333333333,
32,default,block2,garage,projective,0.95,2786,MC,38,MC,MC,[],25,Yes,,Male,English,Chrome,Windows,1440,2560,7.170183333333333,
32,default,block2,mary,projective,0.08,1500,confess,39,confess,C,[],25,Yes,,Male,English,Chrome,Windows,1440,2560,7.170183333333333,
32,default,block2,olivia,projective,0.04,1107,be_annoyed,40,be_annoyed,C,[],25,Yes,,Male,English,Chrome,Windows,1440,2560,7.170183333333333,
32,default,block2,josie,projective,0.05,3374,know,41,know,C,[],25,Yes,,Male,English,Chrome,Windows,1440,2560,7.170183333333333,
32,default,block2,isabella,projective,0.02,1829,inform,42,inform,C,[],25,Yes,,Male,English,Chrome,Windows,1440,2560,7.170183333333333,
32,default,block2,julian,projective,0.02,12901,see,43,see,C,[],25,Yes,,Male,English,Chrome,Windows,1440,2560,7.170183333333333,
32,default,block2,charley,projective,0.06,1444,be_right,44,be_right,C,[],25,Yes,,Male,English,Chrome,Windows,1440,2560,7.170183333333333,
32,default,block2,kids,projective,0.91,3082,MC,45,MC,MC,[],25,Yes,,Male,English,Chrome,Windows,1440,2560,7.170183333333333,
32,default,block2,sophia,projective,0.1,4165,discover,46,discover,C,[],25,Yes,,Male,English,Chrome,Windows,1440,2560,7.170183333333333,
32,default,block2,emma,projective,0.08,1504,think,47,think,C,[],25,Yes,,Male,English,Chrome,Windows,1440,2560,7.170183333333333,
32,default,block2,jon,projective,0.04,1998,establish,48,establish,C,[],25,Yes,,Male,English,Chrome,Windows,1440,2560,7.170183333333333,
32,default,block2,mia,projective,0.03,1957,confirm,49,confirm,C,[],25,Yes,,Male,English,Chrome,Windows,1440,2560,7.170183333333333,
32,default,block2,ballet,projective,0.97,1999,MC,50,MC,MC,[],25,Yes,,Male,English,Chrome,Windows,1440,2560,7.170183333333333,
32,default,block2,zoe,projective,0.02,3431,prove,51,prove,C,[],25,Yes,,Male,English,Chrome,Windows,1440,2560,7.170183333333333,
32,default,block2,tony,projective,0.07,1342,announce,52,announce,C,[],25,Yes,,Male,English,Chrome,Windows,1440,2560,7.170183333333333,
32,default,block2,hat,projective,0.91,1806,MC,53,MC,MC,[],25,Yes,,Male,English,Chrome,Windows,1440,2560,7.170183333333333,
32,default,block2,muffins,projective,0.94,2266,MC,54,MC,MC,[],25,Yes,,Male,English,Chrome,Windows,1440,2560,7.170183333333333,
32,default,block2,pizza,projective,0.94,1358,MC,55,MC,MC,[],25,Yes,,Male,English,Chrome,Windows,1440,2560,7.170183333333333,
32,default,block2,danny,projective,0.09,1510,suggest,56,suggest,C,[],25,Yes,,Male,English,Chrome,Windows,1440,2560,7.170183333333333,
32,default,block2,jayden,projective,0.05,1913,demonstrate,57,demonstrate,C,[],25,Yes,,Male,English,Chrome,Windows,1440,2560,7.170183333333333,
37,default,block1,charley,ai,0.96,200262,confess,5,confess,C,[],37,Yes,,Female,English,Chrome,Windows,900,1600,40.740516666666664,
37,default,block1,hat,ai,0.98,96304,MC,6,MC,MC,[],37,Yes,,Female,English,Chrome,Windows,900,1600,40.740516666666664,
37,default,block1,zoe,ai,1,17754,say,7,say,C,[],37,Yes,,Female,English,Chrome,Windows,900,1600,40.740516666666664,
37,default,block1,isabella,ai,0.29,80681,be_annoyed,8,be_annoyed,C,[],37,Yes,,Female,English,Chrome,Windows,900,1600,40.740516666666664,
37,default,block1,ballet,ai,0.98,65551,MC,9,MC,MC,[],37,Yes,,Female,English,Chrome,Windows,900,1600,40.740516666666664,
37,default,block1,tony,ai,0.99,11484,be_right,10,be_right,C,[],37,Yes,,Female,English,Chrome,Windows,900,1600,40.740516666666664,
37,default,block1,grace,ai,0.99,92692,see,11,see,C,[],37,Yes,,Female,English,Chrome,Windows,900,1600,40.740516666666664,
37,default,block1,garage,ai,0.98,31033,MC,12,MC,MC,[],37,Yes,,Female,English,Chrome,Windows,900,1600,40.740516666666664,
37,default,block1,frank,ai,0.51,81718,announce,13,announce,C,[],37,Yes,,Female,English,Chrome,Windows,900,1600,40.740516666666664,
37,default,block1,mia,ai,0.54,132364,admit,14,admit,C,[],37,Yes,,Female,English,Chrome,Windows,900,1600,40.740516666666664,
37,default,block1,owen,ai,0.42,43275,prove,15,prove,C,[],37,Yes,,Female,English,Chrome,Windows,900,1600,40.740516666666664,
37,default,block1,josh,ai,0.55,483419,reveal,16,reveal,C,[],37,Yes,,Female,English,Chrome,Windows,900,1600,40.740516666666664,
37,default,block1,jayden,ai,0.54,190544,inform,17,inform,C,[],37,Yes,,Female,English,Chrome,Windows,900,1600,40.740516666666664,
37,default,block1,danny,ai,0.48,8870,discover,18,discover,C,[],37,Yes,,Female,English,Chrome,Windows,900,1600,40.740516666666664,
37,default,block1,kids,ai,0.99,7932,MC,19,MC,MC,[],37,Yes,,Female,English,Chrome,Windows,900,1600,40.740516666666664,
37,default,block1,olivia,ai,0.42,8149,hear,20,hear,C,[],37,Yes,,Female,English,Chrome,Windows,900,1600,40.740516666666664,
37,default,block1,jackson,ai,0.71,8258,establish,21,establish,C,[],37,Yes,,Female,English,Chrome,Windows,900,1600,40.740516666666664,
37,default,block1,muffins,ai,0.98,7382,MC,22,MC,MC,[],37,Yes,,Female,English,Chrome,Windows,900,1600,40.740516666666664,
37,default,block1,emily,ai,0.43,9657,think,23,think,C,[],37,Yes,,Female,English,Chrome,Windows,900,1600,40.740516666666664,
37,default,block1,sophia,ai,0.54,7304,suggest,24,suggest,C,[],37,Yes,,Female,English,Chrome,Windows,900,1600,40.740516666666664,
37,default,block1,josie,ai,0.37,10171,pretend,25,pretend,C,[],37,Yes,,Female,English,Chrome,Windows,900,1600,40.740516666666664,
37,default,block1,jon,ai,0.57,6018,acknowledge,26,acknowledge,C,[],37,Yes,,Female,English,Chrome,Windows,900,1600,40.740516666666664,
37,default,block1,mary,ai,0.36,9932,demonstrate,27,demonstrate,C,[],37,Yes,,Female,English,Chrome,Windows,900,1600,40.740516666666664,
37,default,block1,emma,ai,0.56,16465,confirm,28,confirm,C,[],37,Yes,,Female,English,Chrome,Windows,900,1600,40.740516666666664,
37,default,block1,julian,ai,0.4,4643,know,29,know,C,[],37,Yes,,Female,English,Chrome,Windows,900,1600,40.740516666666664,
37,default,block1,pizza,ai,0.99,4400,MC,30,MC,MC,[],37,Yes,,Female,English,Chrome,Windows,900,1600,40.740516666666664,
37,default,block2,grace,projective,0.65,9428,see,32,see,C,[],37,Yes,,Female,English,Chrome,Windows,900,1600,40.740516666666664,
37,default,block2,owen,projective,0.4,23324,prove,33,prove,C,[],37,Yes,,Female,English,Chrome,Windows,900,1600,40.740516666666664,
37,default,block2,isabella,projective,0.62,27507,be_annoyed,34,be_annoyed,C,[],37,Yes,,Female,English,Chrome,Windows,900,1600,40.740516666666664,
37,default,block2,mia,projective,0.88,8248,admit,35,admit,C,[],37,Yes,,Female,English,Chrome,Windows,900,1600,40.740516666666664,
37,default,block2,muffins,projective,1,5718,MC,36,MC,MC,[],37,Yes,,Female,English,Chrome,Windows,900,1600,40.740516666666664,
37,default,block2,jayden,projective,0.72,10138,inform,37,inform,C,[],37,Yes,,Female,English,Chrome,Windows,900,1600,40.740516666666664,
37,default,block2,ballet,projective,1,7372,MC,38,MC,MC,[],37,Yes,,Female,English,Chrome,Windows,900,1600,40.740516666666664,
37,default,block2,charley,projective,0.73,25040,confess,39,confess,C,[],37,Yes,,Female,English,Chrome,Windows,900,1600,40.740516666666664,
37,default,block2,sophia,projective,0.34,13702,suggest,40,suggest,C,[],37,Yes,,Female,English,Chrome,Windows,900,1600,40.740516666666664,
37,default,block2,emma,projective,0.52,35352,confirm,41,confirm,C,[],37,Yes,,Female,English,Chrome,Windows,900,1600,40.740516666666664,
37,default,block2,jon,projective,0.73,11223,acknowledge,42,acknowledge,C,[],37,Yes,,Female,English,Chrome,Windows,900,1600,40.740516666666664,
37,default,block2,mary,projective,0.4,10913,demonstrate,43,demonstrate,C,[],37,Yes,,Female,English,Chrome,Windows,900,1600,40.740516666666664,
37,default,block2,julian,projective,0.8,10502,know,44,know,C,[],37,Yes,,Female,English,Chrome,Windows,900,1600,40.740516666666664,
37,default,block2,josie,projective,0.19,8893,pretend,45,pretend,C,[],37,Yes,,Female,English,Chrome,Windows,900,1600,40.740516666666664,
37,default,block2,josh,projective,0.28,5517,reveal,46,reveal,C,[],37,Yes,,Female,English,Chrome,Windows,900,1600,40.740516666666664,
37,default,block2,zoe,projective,0.52,9319,say,47,say,C,[],37,Yes,,Female,English,Chrome,Windows,900,1600,40.740516666666664,
37,default,block2,tony,projective,0.25,5411,be_right,48,be_right,C,[],37,Yes,,Female,English,Chrome,Windows,900,1600,40.740516666666664,
37,default,block2,olivia,projective,0.53,12371,hear,49,hear,C,[],37,Yes,,Female,English,Chrome,Windows,900,1600,40.740516666666664,
37,default,block2,hat,projective,0.98,3568,MC,50,MC,MC,[],37,Yes,,Female,English,Chrome,Windows,900,1600,40.740516666666664,
37,default,block2,frank,projective,0.64,4203,announce,51,announce,C,[],37,Yes,,Female,English,Chrome,Windows,900,1600,40.740516666666664,
37,default,block2,danny,projective,0.75,5188,discover,52,discover,C,[],37,Yes,,Female,English,Chrome,Windows,900,1600,40.740516666666664,
37,default,block2,jackson,projective,0.33,4044,establish,53,establish,C,[],37,Yes,,Female,English,Chrome,Windows,900,1600,40.740516666666664,
37,default,block2,emily,projective,0.31,3048,think,54,think,C,[],37,Yes,,Female,English,Chrome,Windows,900,1600,40.740516666666664,
37,default,block2,pizza,projective,0.98,2826,MC,55,MC,MC,[],37,Yes,,Female,English,Chrome,Windows,900,1600,40.740516666666664,
37,default,block2,garage,projective,0.98,2965,MC,56,MC,MC,[],37,Yes,,Female,English,Chrome,Windows,900,1600,40.740516666666664,
37,default,block2,kids,projective,0.96,5652,MC,57,MC,MC,[],37,Yes,,Female,English,Chrome,Windows,900,1600,40.740516666666664,
