workerid,proliferate.condition.x,block,content,question_type,response,rt,short_trigger,slide_number_in_experiment,trigger,trigger_class,error.x,proliferate.condition.y,age,american,comments,gender,language,error.y,trial
462,default,block1,muffins,ai,0.03,16919,MC,5,MC,MC,NA,default,18,Yes,NA,Female,English,NA,1
462,default,block1,mary,ai,0.04,8548,be_right,6,be_right,C,NA,default,18,Yes,NA,Female,English,NA,2
462,default,block1,danny,ai,0.97,26064,inform,7,inform,C,NA,default,18,Yes,NA,Female,English,NA,3
462,default,block1,grace,ai,0.94,15367,be_annoyed,8,be_annoyed,C,NA,default,18,Yes,NA,Female,English,NA,4
462,default,block1,owen,ai,0.26,25489,confess,9,confess,C,NA,default,18,Yes,NA,Female,English,NA,5
462,default,block1,zoe,ai,0.85,10972,demonstrate,10,demonstrate,C,NA,default,18,Yes,NA,Female,English,NA,6
462,default,block1,isabella,ai,0.81,11530,reveal,11,reveal,C,NA,default,18,Yes,NA,Female,English,NA,7
462,default,block1,tony,ai,0.85,9952,hear,12,hear,C,NA,default,18,Yes,NA,Female,English,NA,8
462,default,block1,mia,ai,0.86,12010,announce,13,announce,C,NA,default,18,Yes,NA,Female,English,NA,9
462,default,block1,jayden,ai,0.81,7120,discover,14,discover,C,NA,default,18,Yes,NA,Female,English,NA,10
462,default,block1,hat,ai,0.03,9296,MC,15,MC,MC,NA,default,18,Yes,NA,Female,English,NA,11
462,default,block1,charley,ai,0.93,8318,prove,16,prove,C,NA,default,18,Yes,NA,Female,English,NA,12
462,default,block1,jon,ai,0.95,8853,establish,17,establish,C,NA,default,18,Yes,NA,Female,English,NA,13
462,default,block1,garage,ai,0.01,7408,MC,18,MC,MC,NA,default,18,Yes,NA,Female,English,NA,14
462,default,block1,pizza,ai,0.02,4390,MC,19,MC,MC,NA,default,18,Yes,NA,Female,English,NA,15
462,default,block1,ballet,ai,0.02,3705,MC,20,MC,MC,NA,default,18,Yes,NA,Female,English,NA,16
462,default,block1,jackson,ai,0.92,7792,think,21,think,C,NA,default,18,Yes,NA,Female,English,NA,17
462,default,block1,julian,ai,0.98,6548,suggest,22,suggest,C,NA,default,18,Yes,NA,Female,English,NA,18
462,default,block1,olivia,ai,1,6802,admit,23,admit,C,NA,default,18,Yes,NA,Female,English,NA,19
462,default,block1,josie,ai,0.93,17384,see,24,see,C,NA,default,18,Yes,NA,Female,English,NA,20
462,default,block1,frank,ai,0.63,17653,acknowledge,25,acknowledge,C,NA,default,18,Yes,NA,Female,English,NA,21
462,default,block1,emma,ai,0.35,11465,pretend,26,pretend,C,NA,default,18,Yes,NA,Female,English,NA,22
462,default,block1,sophia,ai,0.38,9824,confirm,27,confirm,C,NA,default,18,Yes,NA,Female,English,NA,23
462,default,block1,kids,ai,0.01,4153,MC,28,MC,MC,NA,default,18,Yes,NA,Female,English,NA,24
462,default,block1,emily,ai,0.2,11101,know,29,know,C,NA,default,18,Yes,NA,Female,English,NA,25
462,default,block1,josh,ai,0.32,15874,say,30,say,C,NA,default,18,Yes,NA,Female,English,NA,26
462,default,block2,tony,projective,0.63,19325,hear,32,hear,C,NA,default,18,Yes,NA,Female,English,NA,27
462,default,block2,zoe,projective,0.32,11290,demonstrate,33,demonstrate,C,NA,default,18,Yes,NA,Female,English,NA,28
462,default,block2,danny,projective,0.85,26432,inform,34,inform,C,NA,default,18,Yes,NA,Female,English,NA,29
462,default,block2,garage,projective,0.99,4335,MC,35,MC,MC,NA,default,18,Yes,NA,Female,English,NA,30
462,default,block2,jackson,projective,0.11,7557,think,36,think,C,NA,default,18,Yes,NA,Female,English,NA,31
462,default,block2,jon,projective,0.73,16177,establish,37,establish,C,NA,default,18,Yes,NA,Female,English,NA,32
462,default,block2,frank,projective,0.76,4809,acknowledge,38,acknowledge,C,NA,default,18,Yes,NA,Female,English,NA,33
462,default,block2,muffins,projective,0.98,3159,MC,39,MC,MC,NA,default,18,Yes,NA,Female,English,NA,34
462,default,block2,kids,projective,0.98,3492,MC,40,MC,MC,NA,default,18,Yes,NA,Female,English,NA,35
462,default,block2,emma,projective,0.15,10726,pretend,41,pretend,C,NA,default,18,Yes,NA,Female,English,NA,36
462,default,block2,jayden,projective,0.78,6385,discover,42,discover,C,NA,default,18,Yes,NA,Female,English,NA,37
462,default,block2,sophia,projective,0.79,5965,confirm,43,confirm,C,NA,default,18,Yes,NA,Female,English,NA,38
462,default,block2,grace,projective,0.99,5562,be_annoyed,44,be_annoyed,C,NA,default,18,Yes,NA,Female,English,NA,39
462,default,block2,olivia,projective,0.92,8304,admit,45,admit,C,NA,default,18,Yes,NA,Female,English,NA,40
462,default,block2,owen,projective,0.82,8119,confess,46,confess,C,NA,default,18,Yes,NA,Female,English,NA,41
462,default,block2,josie,projective,0.98,6929,see,47,see,C,NA,default,18,Yes,NA,Female,English,NA,42
462,default,block2,josh,projective,0.92,7887,say,48,say,C,NA,default,18,Yes,NA,Female,English,NA,43
462,default,block2,julian,projective,0.28,5459,suggest,49,suggest,C,NA,default,18,Yes,NA,Female,English,NA,44
462,default,block2,mia,projective,0.67,9086,announce,50,announce,C,NA,default,18,Yes,NA,Female,English,NA,45
462,default,block2,pizza,projective,0.98,3303,MC,51,MC,MC,NA,default,18,Yes,NA,Female,English,NA,46
462,default,block2,mary,projective,0.35,7366,be_right,52,be_right,C,NA,default,18,Yes,NA,Female,English,NA,47
462,default,block2,hat,projective,0.99,3965,MC,53,MC,MC,NA,default,18,Yes,NA,Female,English,NA,48
462,default,block2,charley,projective,0.72,10481,prove,54,prove,C,NA,default,18,Yes,NA,Female,English,NA,49
462,default,block2,isabella,projective,0.89,5914,reveal,55,reveal,C,NA,default,18,Yes,NA,Female,English,NA,50
462,default,block2,ballet,projective,0.98,2926,MC,56,MC,MC,NA,default,18,Yes,NA,Female,English,NA,51
462,default,block2,emily,projective,1,8533,know,57,know,C,NA,default,18,Yes,NA,Female,English,NA,52
505,default,block1,frank,ai,1,37490,be_right,5,be_right,C,NA,default,32,Yes,None. Thank you for asking.,Female,American English,NA,1
505,default,block1,zoe,ai,1,8817,know,6,know,C,NA,default,32,Yes,None. Thank you for asking.,Female,American English,NA,2
505,default,block1,emma,ai,1,9879,discover,7,discover,C,NA,default,32,Yes,None. Thank you for asking.,Female,American English,NA,3
505,default,block1,josh,ai,1,11591,suggest,8,suggest,C,NA,default,32,Yes,None. Thank you for asking.,Female,American English,NA,4
505,default,block1,josie,ai,0.05,11393,establish,9,establish,C,NA,default,32,Yes,None. Thank you for asking.,Female,American English,NA,5
505,default,block1,mia,ai,1,13815,see,10,see,C,NA,default,32,Yes,None. Thank you for asking.,Female,American English,NA,6
505,default,block1,jayden,ai,0.97,8567,confess,11,confess,C,NA,default,32,Yes,None. Thank you for asking.,Female,American English,NA,7
505,default,block1,danny,ai,1,8358,prove,12,prove,C,NA,default,32,Yes,None. Thank you for asking.,Female,American English,NA,8
505,default,block1,jon,ai,1,7569,admit,13,admit,C,NA,default,32,Yes,None. Thank you for asking.,Female,American English,NA,9
505,default,block1,charley,ai,1,4285,think,14,think,C,NA,default,32,Yes,None. Thank you for asking.,Female,American English,NA,10
505,default,block1,muffins,ai,0,6848,MC,15,MC,MC,NA,default,32,Yes,None. Thank you for asking.,Female,American English,NA,11
505,default,block1,julian,ai,1,6558,inform,16,inform,C,NA,default,32,Yes,None. Thank you for asking.,Female,American English,NA,12
505,default,block1,garage,ai,0,23592,MC,17,MC,MC,NA,default,32,Yes,None. Thank you for asking.,Female,American English,NA,13
505,default,block1,sophia,ai,1,6631,hear,18,hear,C,NA,default,32,Yes,None. Thank you for asking.,Female,American English,NA,14
505,default,block1,hat,ai,0,17605,MC,19,MC,MC,NA,default,32,Yes,None. Thank you for asking.,Female,American English,NA,15
505,default,block1,pizza,ai,0,4595,MC,20,MC,MC,NA,default,32,Yes,None. Thank you for asking.,Female,American English,NA,16
505,default,block1,owen,ai,1,5445,demonstrate,21,demonstrate,C,NA,default,32,Yes,None. Thank you for asking.,Female,American English,NA,17
505,default,block1,olivia,ai,1,4462,confirm,22,confirm,C,NA,default,32,Yes,None. Thank you for asking.,Female,American English,NA,18
505,default,block1,mary,ai,1,14199,be_annoyed,23,be_annoyed,C,NA,default,32,Yes,None. Thank you for asking.,Female,American English,NA,19
505,default,block1,isabella,ai,1,4143,say,24,say,C,NA,default,32,Yes,None. Thank you for asking.,Female,American English,NA,20
505,default,block1,emily,ai,1,22248,announce,25,announce,C,NA,default,32,Yes,None. Thank you for asking.,Female,American English,NA,21
505,default,block1,jackson,ai,1,4632,pretend,26,pretend,C,NA,default,32,Yes,None. Thank you for asking.,Female,American English,NA,22
505,default,block1,ballet,ai,0,4799,MC,27,MC,MC,NA,default,32,Yes,None. Thank you for asking.,Female,American English,NA,23
505,default,block1,tony,ai,1,3846,reveal,28,reveal,C,NA,default,32,Yes,None. Thank you for asking.,Female,American English,NA,24
505,default,block1,kids,ai,0,39952,MC,29,MC,MC,NA,default,32,Yes,None. Thank you for asking.,Female,American English,NA,25
505,default,block1,grace,ai,0.96,4503,acknowledge,30,acknowledge,C,NA,default,32,Yes,None. Thank you for asking.,Female,American English,NA,26
505,default,block2,grace,projective,0.94,7209,acknowledge,32,acknowledge,C,NA,default,32,Yes,None. Thank you for asking.,Female,American English,NA,27
505,default,block2,zoe,projective,0.09,5959,know,33,know,C,NA,default,32,Yes,None. Thank you for asking.,Female,American English,NA,28
505,default,block2,sophia,projective,0.05,5273,hear,34,hear,C,NA,default,32,Yes,None. Thank you for asking.,Female,American English,NA,29
505,default,block2,owen,projective,0,8728,demonstrate,35,demonstrate,C,NA,default,32,Yes,None. Thank you for asking.,Female,American English,NA,30
505,default,block2,charley,projective,0.04,6878,think,36,think,C,NA,default,32,Yes,None. Thank you for asking.,Female,American English,NA,31
505,default,block2,josie,projective,0.01,5089,establish,37,establish,C,NA,default,32,Yes,None. Thank you for asking.,Female,American English,NA,32
505,default,block2,emma,projective,0.04,5334,discover,38,discover,C,NA,default,32,Yes,None. Thank you for asking.,Female,American English,NA,33
505,default,block2,kids,projective,0.96,4369,MC,39,MC,MC,NA,default,32,Yes,None. Thank you for asking.,Female,American English,NA,34
505,default,block2,pizza,projective,0.98,40447,MC,40,MC,MC,NA,default,32,Yes,None. Thank you for asking.,Female,American English,NA,35
505,default,block2,muffins,projective,0.99,3439,MC,41,MC,MC,NA,default,32,Yes,None. Thank you for asking.,Female,American English,NA,36
505,default,block2,isabella,projective,0.02,4641,say,42,say,C,NA,default,32,Yes,None. Thank you for asking.,Female,American English,NA,37
505,default,block2,hat,projective,0.97,4553,MC,43,MC,MC,NA,default,32,Yes,None. Thank you for asking.,Female,American English,NA,38
505,default,block2,ballet,projective,0.99,3855,MC,44,MC,MC,NA,default,32,Yes,None. Thank you for asking.,Female,American English,NA,39
505,default,block2,josh,projective,0.02,4385,suggest,45,suggest,C,NA,default,32,Yes,None. Thank you for asking.,Female,American English,NA,40
505,default,block2,garage,projective,0.97,7375,MC,46,MC,MC,NA,default,32,Yes,None. Thank you for asking.,Female,American English,NA,41
505,default,block2,mia,projective,0.08,2599,see,47,see,C,NA,default,32,Yes,None. Thank you for asking.,Female,American English,NA,42
505,default,block2,olivia,projective,0.05,3072,confirm,48,confirm,C,NA,default,32,Yes,None. Thank you for asking.,Female,American English,NA,43
505,default,block2,danny,projective,0.07,4280,prove,49,prove,C,NA,default,32,Yes,None. Thank you for asking.,Female,American English,NA,44
505,default,block2,jayden,projective,0.01,2703,confess,50,confess,C,NA,default,32,Yes,None. Thank you for asking.,Female,American English,NA,45
505,default,block2,jackson,projective,0.04,16439,pretend,51,pretend,C,NA,default,32,Yes,None. Thank you for asking.,Female,American English,NA,46
505,default,block2,tony,projective,0.06,2112,reveal,52,reveal,C,NA,default,32,Yes,None. Thank you for asking.,Female,American English,NA,47
505,default,block2,jon,projective,0,3208,admit,53,admit,C,NA,default,32,Yes,None. Thank you for asking.,Female,American English,NA,48
505,default,block2,emily,projective,0.01,2497,announce,54,announce,C,NA,default,32,Yes,None. Thank you for asking.,Female,American English,NA,49
505,default,block2,frank,projective,0.01,3952,be_right,55,be_right,C,NA,default,32,Yes,None. Thank you for asking.,Female,American English,NA,50
505,default,block2,julian,projective,0.01,4239,inform,56,inform,C,NA,default,32,Yes,None. Thank you for asking.,Female,American English,NA,51
505,default,block2,mary,projective,0.02,2216,be_annoyed,57,be_annoyed,C,NA,default,32,Yes,None. Thank you for asking.,Female,American English,NA,52
546,default,block1,garage,projective,1,5526,MC,5,MC,MC,NA,default,74,Yes,NA,Male,english,NA,1
546,default,block1,muffins,projective,1,3704,MC,6,MC,MC,NA,default,74,Yes,NA,Male,english,NA,2
546,default,block1,jon,projective,0.75,7720,establish,7,establish,C,NA,default,74,Yes,NA,Male,english,NA,3
546,default,block1,mia,projective,1,8615,know,8,know,C,NA,default,74,Yes,NA,Male,english,NA,4
546,default,block1,zoe,projective,0.51,5055,confirm,9,confirm,C,NA,default,74,Yes,NA,Male,english,NA,5
546,default,block1,sophia,projective,0.81,5112,see,10,see,C,NA,default,74,Yes,NA,Male,english,NA,6
546,default,block1,pizza,projective,1,3264,MC,11,MC,MC,NA,default,74,Yes,NA,Male,english,NA,7
546,default,block1,emily,projective,0,7544,say,12,say,C,NA,default,74,Yes,NA,Male,english,NA,8
546,default,block1,josh,projective,0,4560,hear,13,hear,C,NA,default,74,Yes,NA,Male,english,NA,9
546,default,block1,charley,projective,0,4232,inform,14,inform,C,NA,default,74,Yes,NA,Male,english,NA,10
546,default,block1,tony,projective,0,4096,admit,15,admit,C,NA,default,74,Yes,NA,Male,english,NA,11
546,default,block1,kids,projective,1,3056,MC,16,MC,MC,NA,default,74,Yes,NA,Male,english,NA,12
546,default,block1,grace,projective,0,3488,think,17,think,C,NA,default,74,Yes,NA,Male,english,NA,13
546,default,block1,ballet,projective,1,2384,MC,18,MC,MC,NA,default,74,Yes,NA,Male,english,NA,14
546,default,block1,hat,projective,1,2383,MC,19,MC,MC,NA,default,74,Yes,NA,Male,english,NA,15
546,default,block1,josie,projective,0,3120,confess,20,confess,C,NA,default,74,Yes,NA,Male,english,NA,16
546,default,block1,danny,projective,0,3736,pretend,21,pretend,C,NA,default,74,Yes,NA,Male,english,NA,17
546,default,block1,mary,projective,0,3416,prove,22,prove,C,NA,default,74,Yes,NA,Male,english,NA,18
546,default,block1,olivia,projective,0.82,4152,reveal,23,reveal,C,NA,default,74,Yes,NA,Male,english,NA,19
546,default,block1,emma,projective,0.26,3504,be_right,24,be_right,C,NA,default,74,Yes,NA,Male,english,NA,20
546,default,block1,julian,projective,0,4679,announce,25,announce,C,NA,default,74,Yes,NA,Male,english,NA,21
546,default,block1,frank,projective,0.97,7000,be_annoyed,26,be_annoyed,C,NA,default,74,Yes,NA,Male,english,NA,22
546,default,block1,jayden,projective,1,3032,discover,27,discover,C,NA,default,74,Yes,NA,Male,english,NA,23
546,default,block1,jackson,projective,1,4768,demonstrate,28,demonstrate,C,NA,default,74,Yes,NA,Male,english,NA,24
546,default,block1,owen,projective,1,3776,acknowledge,29,acknowledge,C,NA,default,74,Yes,NA,Male,english,NA,25
546,default,block1,isabella,projective,0.19,3048,suggest,30,suggest,C,NA,default,74,Yes,NA,Male,english,NA,26
546,default,block2,mia,ai,1,9287,know,32,know,C,NA,default,74,Yes,NA,Male,english,NA,27
546,default,block2,josh,ai,1,5920,hear,33,hear,C,NA,default,74,Yes,NA,Male,english,NA,28
546,default,block2,olivia,ai,1,4464,reveal,34,reveal,C,NA,default,74,Yes,NA,Male,english,NA,29
546,default,block2,emily,ai,1,3504,say,35,say,C,NA,default,74,Yes,NA,Male,english,NA,30
546,default,block2,sophia,ai,1,3600,see,36,see,C,NA,default,74,Yes,NA,Male,english,NA,31
546,default,block2,charley,ai,1,3464,inform,37,inform,C,NA,default,74,Yes,NA,Male,english,NA,32
546,default,block2,jayden,ai,1,2792,discover,38,discover,C,NA,default,74,Yes,NA,Male,english,NA,33
546,default,block2,owen,ai,1,5375,acknowledge,39,acknowledge,C,NA,default,74,Yes,NA,Male,english,NA,34
546,default,block2,frank,ai,1,3400,be_annoyed,40,be_annoyed,C,NA,default,74,Yes,NA,Male,english,NA,35
546,default,block2,garage,ai,0,4536,MC,41,MC,MC,NA,default,74,Yes,NA,Male,english,NA,36
546,default,block2,julian,ai,1,3975,announce,42,announce,C,NA,default,74,Yes,NA,Male,english,NA,37
546,default,block2,tony,ai,1,2593,admit,43,admit,C,NA,default,74,Yes,NA,Male,english,NA,38
546,default,block2,kids,ai,0,3399,MC,44,MC,MC,NA,default,74,Yes,NA,Male,english,NA,39
546,default,block2,ballet,ai,0,3072,MC,45,MC,MC,NA,default,74,Yes,NA,Male,english,NA,40
546,default,block2,hat,ai,0,4832,MC,46,MC,MC,NA,default,74,Yes,NA,Male,english,NA,41
546,default,block2,jon,ai,1,3536,establish,47,establish,C,NA,default,74,Yes,NA,Male,english,NA,42
546,default,block2,grace,ai,1,3720,think,48,think,C,NA,default,74,Yes,NA,Male,english,NA,43
546,default,block2,jackson,ai,1,3088,demonstrate,49,demonstrate,C,NA,default,74,Yes,NA,Male,english,NA,44
546,default,block2,isabella,ai,1,3168,suggest,50,suggest,C,NA,default,74,Yes,NA,Male,english,NA,45
546,default,block2,pizza,ai,0,2576,MC,51,MC,MC,NA,default,74,Yes,NA,Male,english,NA,46
546,default,block2,danny,ai,1,3456,pretend,52,pretend,C,NA,default,74,Yes,NA,Male,english,NA,47
546,default,block2,zoe,ai,1,4232,confirm,53,confirm,C,NA,default,74,Yes,NA,Male,english,NA,48
546,default,block2,mary,ai,1,3399,prove,54,prove,C,NA,default,74,Yes,NA,Male,english,NA,49
546,default,block2,muffins,ai,0,3817,MC,55,MC,MC,NA,default,74,Yes,NA,Male,english,NA,50
546,default,block2,josie,ai,1,2640,confess,56,confess,C,NA,default,74,Yes,NA,Male,english,NA,51
546,default,block2,emma,ai,1,4696,be_right,57,be_right,C,NA,default,74,Yes,NA,Male,english,NA,52
685,default,block1,ballet,ai,0.02,11238,MC,5,MC,MC,NA,default,38,Yes,Thanks,Female,english,NA,1
685,default,block1,jackson,ai,0,23346,demonstrate,6,demonstrate,C,NA,default,38,Yes,Thanks,Female,english,NA,2
685,default,block1,grace,ai,0.99,31518,announce,7,announce,C,NA,default,38,Yes,Thanks,Female,english,NA,3
685,default,block1,owen,ai,0.99,23192,say,8,say,C,NA,default,38,Yes,Thanks,Female,english,NA,4
685,default,block1,kids,ai,0.02,9820,MC,9,MC,MC,NA,default,38,Yes,Thanks,Female,english,NA,5
685,default,block1,isabella,ai,0.97,9016,inform,10,inform,C,NA,default,38,Yes,Thanks,Female,english,NA,6
685,default,block1,mary,ai,0.97,7598,discover,11,discover,C,NA,default,38,Yes,Thanks,Female,english,NA,7
685,default,block1,danny,ai,0.99,8483,pretend,12,pretend,C,NA,default,38,Yes,Thanks,Female,english,NA,8
685,default,block1,jon,ai,1,21127,admit,13,admit,C,NA,default,38,Yes,Thanks,Female,english,NA,9
685,default,block1,zoe,ai,0.99,26183,hear,14,hear,C,NA,default,38,Yes,Thanks,Female,english,NA,10
685,default,block1,emily,ai,0.98,7083,acknowledge,15,acknowledge,C,NA,default,38,Yes,Thanks,Female,english,NA,11
685,default,block1,emma,ai,0.97,26314,confirm,16,confirm,C,NA,default,38,Yes,Thanks,Female,english,NA,12
685,default,block1,josh,ai,0.98,7957,see,17,see,C,NA,default,38,Yes,Thanks,Female,english,NA,13
685,default,block1,hat,ai,0,5633,MC,18,MC,MC,NA,default,38,Yes,Thanks,Female,english,NA,14
685,default,block1,jayden,ai,1,7458,confess,19,confess,C,NA,default,38,Yes,Thanks,Female,english,NA,15
685,default,block1,garage,ai,0,4137,MC,20,MC,MC,NA,default,38,Yes,Thanks,Female,english,NA,16
685,default,block1,mia,ai,1,7429,establish,21,establish,C,NA,default,38,Yes,Thanks,Female,english,NA,17
685,default,block1,julian,ai,0.81,31445,be_right,22,be_right,C,NA,default,38,Yes,Thanks,Female,english,NA,18
685,default,block1,tony,ai,1,8636,prove,23,prove,C,NA,default,38,Yes,Thanks,Female,english,NA,19
685,default,block1,olivia,ai,1,12192,be_annoyed,24,be_annoyed,C,NA,default,38,Yes,Thanks,Female,english,NA,20
685,default,block1,pizza,ai,0,4194,MC,25,MC,MC,NA,default,38,Yes,Thanks,Female,english,NA,21
685,default,block1,muffins,ai,0,3844,MC,26,MC,MC,NA,default,38,Yes,Thanks,Female,english,NA,22
685,default,block1,sophia,ai,1,4898,know,27,know,C,NA,default,38,Yes,Thanks,Female,english,NA,23
685,default,block1,charley,ai,1,5594,reveal,28,reveal,C,NA,default,38,Yes,Thanks,Female,english,NA,24
685,default,block1,frank,ai,1,4697,suggest,29,suggest,C,NA,default,38,Yes,Thanks,Female,english,NA,25
685,default,block1,josie,ai,1,6329,think,30,think,C,NA,default,38,Yes,Thanks,Female,english,NA,26
685,default,block2,olivia,projective,0.77,15044,be_annoyed,32,be_annoyed,C,NA,default,38,Yes,Thanks,Female,english,NA,27
685,default,block2,charley,projective,0.97,7494,reveal,33,reveal,C,NA,default,38,Yes,Thanks,Female,english,NA,28
685,default,block2,mary,projective,0.94,6516,discover,34,discover,C,NA,default,38,Yes,Thanks,Female,english,NA,29
685,default,block2,muffins,projective,1,4404,MC,35,MC,MC,NA,default,38,Yes,Thanks,Female,english,NA,30
685,default,block2,josie,projective,0.49,11484,think,36,think,C,NA,default,38,Yes,Thanks,Female,english,NA,31
685,default,block2,frank,projective,0.5,6780,suggest,37,suggest,C,NA,default,38,Yes,Thanks,Female,english,NA,32
685,default,block2,jackson,projective,0.5,8864,demonstrate,38,demonstrate,C,NA,default,38,Yes,Thanks,Female,english,NA,33
685,default,block2,tony,projective,0.92,6498,prove,39,prove,C,NA,default,38,Yes,Thanks,Female,english,NA,34
685,default,block2,josh,projective,0.8,8527,see,40,see,C,NA,default,38,Yes,Thanks,Female,english,NA,35
685,default,block2,isabella,projective,0.67,11156,inform,41,inform,C,NA,default,38,Yes,Thanks,Female,english,NA,36
685,default,block2,emily,projective,0.71,6256,acknowledge,42,acknowledge,C,NA,default,38,Yes,Thanks,Female,english,NA,37
685,default,block2,sophia,projective,0.97,9120,know,43,know,C,NA,default,38,Yes,Thanks,Female,english,NA,38
685,default,block2,grace,projective,0.87,6778,announce,44,announce,C,NA,default,38,Yes,Thanks,Female,english,NA,39
685,default,block2,julian,projective,0.81,10912,be_right,45,be_right,C,NA,default,38,Yes,Thanks,Female,english,NA,40
685,default,block2,hat,projective,1,3726,MC,46,MC,MC,NA,default,38,Yes,Thanks,Female,english,NA,41
685,default,block2,owen,projective,0.47,7998,say,47,say,C,NA,default,38,Yes,Thanks,Female,english,NA,42
685,default,block2,mia,projective,0.3,6526,establish,48,establish,C,NA,default,38,Yes,Thanks,Female,english,NA,43
685,default,block2,emma,projective,0.38,7020,confirm,49,confirm,C,NA,default,38,Yes,Thanks,Female,english,NA,44
685,default,block2,pizza,projective,1,3372,MC,50,MC,MC,NA,default,38,Yes,Thanks,Female,english,NA,45
685,default,block2,ballet,projective,1,3314,MC,51,MC,MC,NA,default,38,Yes,Thanks,Female,english,NA,46
685,default,block2,jon,projective,0.49,4454,admit,52,admit,C,NA,default,38,Yes,Thanks,Female,english,NA,47
685,default,block2,garage,projective,1,3333,MC,53,MC,MC,NA,default,38,Yes,Thanks,Female,english,NA,48
685,default,block2,kids,projective,1,10193,MC,54,MC,MC,NA,default,38,Yes,Thanks,Female,english,NA,49
685,default,block2,danny,projective,0.19,25720,pretend,55,pretend,C,NA,default,38,Yes,Thanks,Female,english,NA,50
685,default,block2,jayden,projective,0.65,8294,confess,56,confess,C,NA,default,38,Yes,Thanks,Female,english,NA,51
685,default,block2,zoe,projective,0.79,4298,hear,57,hear,C,NA,default,38,Yes,Thanks,Female,english,NA,52
495,default,block1,isabella,projective,0.7,15551,acknowledge,5,acknowledge,C,NA,default,30,Yes,NA,Male,English,NA,1
495,default,block1,mia,projective,0.19,13104,pretend,6,pretend,C,NA,default,30,Yes,NA,Male,English,NA,2
495,default,block1,josie,projective,0.84,8064,see,7,see,C,NA,default,30,Yes,NA,Male,English,NA,3
495,default,block1,tony,projective,0.23,16311,announce,8,announce,C,NA,default,30,Yes,NA,Male,English,NA,4
495,default,block1,julian,projective,0.84,12768,confirm,9,confirm,C,NA,default,30,Yes,NA,Male,English,NA,5
495,default,block1,charley,projective,0.92,9152,reveal,10,reveal,C,NA,default,30,Yes,NA,Male,English,NA,6
495,default,block1,garage,projective,1,9776,MC,11,MC,MC,NA,default,30,Yes,NA,Male,English,NA,7
495,default,block1,kids,projective,1,31120,MC,12,MC,MC,NA,default,30,Yes,NA,Male,English,NA,8
495,default,block1,sophia,projective,0.63,22448,confess,13,confess,C,NA,default,30,Yes,NA,Male,English,NA,9
495,default,block1,mary,projective,0.9,5392,hear,14,hear,C,NA,default,30,Yes,NA,Male,English,NA,10
495,default,block1,frank,projective,0.3,6072,say,15,say,C,NA,default,30,Yes,NA,Male,English,NA,11
495,default,block1,emily,projective,0.13,7624,think,16,think,C,NA,default,30,Yes,NA,Male,English,NA,12
495,default,block1,pizza,projective,1,4384,MC,17,MC,MC,NA,default,30,Yes,NA,Male,English,NA,13
495,default,block1,grace,projective,0.88,10184,be_annoyed,18,be_annoyed,C,NA,default,30,Yes,NA,Male,English,NA,14
495,default,block1,olivia,projective,0.19,7200,suggest,19,suggest,C,NA,default,30,Yes,NA,Male,English,NA,15
495,default,block1,danny,projective,0.87,7720,prove,20,prove,C,NA,default,30,Yes,NA,Male,English,NA,16
495,default,block1,josh,projective,0.26,12824,establish,21,establish,C,NA,default,30,Yes,NA,Male,English,NA,17
495,default,block1,ballet,projective,1,3320,MC,22,MC,MC,NA,default,30,Yes,NA,Male,English,NA,18
495,default,block1,jon,projective,1,8880,know,23,know,C,NA,default,30,Yes,NA,Male,English,NA,19
495,default,block1,owen,projective,1,24680,admit,24,admit,C,NA,default,30,Yes,NA,Male,English,NA,20
495,default,block1,hat,projective,1,2912,MC,25,MC,MC,NA,default,30,Yes,NA,Male,English,NA,21
495,default,block1,muffins,projective,1,3536,MC,26,MC,MC,NA,default,30,Yes,NA,Male,English,NA,22
495,default,block1,zoe,projective,0.44,11400,be_right,27,be_right,C,NA,default,30,Yes,NA,Male,English,NA,23
495,default,block1,jackson,projective,0.84,8688,discover,28,discover,C,NA,default,30,Yes,NA,Male,English,NA,24
495,default,block1,jayden,projective,0.36,6632,demonstrate,29,demonstrate,C,NA,default,30,Yes,NA,Male,English,NA,25
495,default,block1,emma,projective,0.35,9072,inform,30,inform,C,NA,default,30,Yes,NA,Male,English,NA,26
495,default,block2,pizza,ai,0,5447,MC,32,MC,MC,NA,default,30,Yes,NA,Male,English,NA,27
495,default,block2,emma,ai,0.68,11831,inform,33,inform,C,NA,default,30,Yes,NA,Male,English,NA,28
495,default,block2,olivia,ai,0.7,13720,suggest,34,suggest,C,NA,default,30,Yes,NA,Male,English,NA,29
495,default,block2,ballet,ai,0,4832,MC,35,MC,MC,NA,default,30,Yes,NA,Male,English,NA,30
495,default,block2,danny,ai,0.63,13231,prove,36,prove,C,NA,default,30,Yes,NA,Male,English,NA,31
495,default,block2,kids,ai,0,4200,MC,37,MC,MC,NA,default,30,Yes,NA,Male,English,NA,32
495,default,block2,julian,ai,0.24,15752,confirm,38,confirm,C,NA,default,30,Yes,NA,Male,English,NA,33
495,default,block2,jayden,ai,0.22,4168,demonstrate,39,demonstrate,C,NA,default,30,Yes,NA,Male,English,NA,34
495,default,block2,emily,ai,0.73,6440,think,40,think,C,NA,default,30,Yes,NA,Male,English,NA,35
495,default,block2,hat,ai,0,2496,MC,41,MC,MC,NA,default,30,Yes,NA,Male,English,NA,36
495,default,block2,frank,ai,0.2,17848,say,42,say,C,NA,default,30,Yes,NA,Male,English,NA,37
495,default,block2,garage,ai,0,3576,MC,43,MC,MC,NA,default,30,Yes,NA,Male,English,NA,38
495,default,block2,josh,ai,0.27,6344,establish,44,establish,C,NA,default,30,Yes,NA,Male,English,NA,39
495,default,block2,jon,ai,0.66,6632,know,45,know,C,NA,default,30,Yes,NA,Male,English,NA,40
495,default,block2,mia,ai,0.85,8656,pretend,46,pretend,C,NA,default,30,Yes,NA,Male,English,NA,41
495,default,block2,mary,ai,0.4,9769,hear,47,hear,C,NA,default,30,Yes,NA,Male,English,NA,42
495,default,block2,grace,ai,0.89,5680,be_annoyed,48,be_annoyed,C,NA,default,30,Yes,NA,Male,English,NA,43
495,default,block2,zoe,ai,0.1,15520,be_right,49,be_right,C,NA,default,30,Yes,NA,Male,English,NA,44
495,default,block2,jackson,ai,0.7,11792,discover,50,discover,C,NA,default,30,Yes,NA,Male,English,NA,45
495,default,block2,tony,ai,0.38,14736,announce,51,announce,C,NA,default,30,Yes,NA,Male,English,NA,46
495,default,block2,charley,ai,0.41,8416,reveal,52,reveal,C,NA,default,30,Yes,NA,Male,English,NA,47
495,default,block2,owen,ai,0.71,15463,admit,53,admit,C,NA,default,30,Yes,NA,Male,English,NA,48
495,default,block2,isabella,ai,0.42,38887,acknowledge,54,acknowledge,C,NA,default,30,Yes,NA,Male,English,NA,49
495,default,block2,josie,ai,0.9,5464,see,55,see,C,NA,default,30,Yes,NA,Male,English,NA,50
495,default,block2,muffins,ai,0,3568,MC,56,MC,MC,NA,default,30,Yes,NA,Male,English,NA,51
495,default,block2,sophia,ai,0.33,5576,confess,57,confess,C,NA,default,30,Yes,NA,Male,English,NA,52
405,default,block1,tony,ai,0.98,9846,discover,5,discover,C,NA,default,18,Yes,NA,Male,English,NA,1
405,default,block1,jayden,ai,0.98,8061,know,6,know,C,NA,default,18,Yes,NA,Male,English,NA,2
405,default,block1,mia,ai,0.98,8465,demonstrate,7,demonstrate,C,NA,default,18,Yes,NA,Male,English,NA,3
405,default,block1,muffins,ai,0.02,7662,MC,8,MC,MC,NA,default,18,Yes,NA,Male,English,NA,4
405,default,block1,emma,ai,0.98,11523,be_annoyed,9,be_annoyed,C,NA,default,18,Yes,NA,Male,English,NA,5
405,default,block1,frank,ai,0.98,7922,acknowledge,10,acknowledge,C,NA,default,18,Yes,NA,Male,English,NA,6
405,default,block1,josie,ai,0.98,17418,hear,11,hear,C,NA,default,18,Yes,NA,Male,English,NA,7
405,default,block1,garage,ai,0,5859,MC,12,MC,MC,NA,default,18,Yes,NA,Male,English,NA,8
405,default,block1,ballet,ai,0,4683,MC,13,MC,MC,NA,default,18,Yes,NA,Male,English,NA,9
405,default,block1,charley,ai,1,4070,inform,14,inform,C,NA,default,18,Yes,NA,Male,English,NA,10
405,default,block1,grace,ai,1,4550,confess,15,confess,C,NA,default,18,Yes,NA,Male,English,NA,11
405,default,block1,jon,ai,1,5110,establish,16,establish,C,NA,default,18,Yes,NA,Male,English,NA,12
405,default,block1,danny,ai,1,3522,be_right,17,be_right,C,NA,default,18,Yes,NA,Male,English,NA,13
405,default,block1,olivia,ai,1,4528,reveal,18,reveal,C,NA,default,18,Yes,NA,Male,English,NA,14
405,default,block1,julian,ai,1,5465,think,19,think,C,NA,default,18,Yes,NA,Male,English,NA,15
405,default,block1,jackson,ai,1,3582,admit,20,admit,C,NA,default,18,Yes,NA,Male,English,NA,16
405,default,block1,pizza,ai,0,3121,MC,21,MC,MC,NA,default,18,Yes,NA,Male,English,NA,17
405,default,block1,kids,ai,0,4980,MC,22,MC,MC,NA,default,18,Yes,NA,Male,English,NA,18
405,default,block1,sophia,ai,1,3187,suggest,23,suggest,C,NA,default,18,Yes,NA,Male,English,NA,19
405,default,block1,owen,ai,1,3627,announce,24,announce,C,NA,default,18,Yes,NA,Male,English,NA,20
405,default,block1,hat,ai,0,4418,MC,25,MC,MC,NA,default,18,Yes,NA,Male,English,NA,21
405,default,block1,josh,ai,1,4003,pretend,26,pretend,C,NA,default,18,Yes,NA,Male,English,NA,22
405,default,block1,mary,ai,1,3382,say,27,say,C,NA,default,18,Yes,NA,Male,English,NA,23
405,default,block1,isabella,ai,1,6707,prove,28,prove,C,NA,default,18,Yes,NA,Male,English,NA,24
405,default,block1,zoe,ai,1,3320,confirm,29,confirm,C,NA,default,18,Yes,NA,Male,English,NA,25
405,default,block1,emily,ai,1,3971,see,30,see,C,NA,default,18,Yes,NA,Male,English,NA,26
405,default,block2,zoe,projective,0.68,8156,confirm,32,confirm,C,NA,default,18,Yes,NA,Male,English,NA,27
405,default,block2,grace,projective,1,8637,confess,33,confess,C,NA,default,18,Yes,NA,Male,English,NA,28
405,default,block2,kids,projective,1,5363,MC,34,MC,MC,NA,default,18,Yes,NA,Male,English,NA,29
405,default,block2,emma,projective,1,6500,be_annoyed,35,be_annoyed,C,NA,default,18,Yes,NA,Male,English,NA,30
405,default,block2,muffins,projective,1,3104,MC,36,MC,MC,NA,default,18,Yes,NA,Male,English,NA,31
405,default,block2,hat,projective,1,3435,MC,37,MC,MC,NA,default,18,Yes,NA,Male,English,NA,32
405,default,block2,mia,projective,0.82,7246,demonstrate,38,demonstrate,C,NA,default,18,Yes,NA,Male,English,NA,33
405,default,block2,charley,projective,1,3381,inform,39,inform,C,NA,default,18,Yes,NA,Male,English,NA,34
405,default,block2,sophia,projective,0.5,7863,suggest,40,suggest,C,NA,default,18,Yes,NA,Male,English,NA,35
405,default,block2,josie,projective,0.98,8401,hear,41,hear,C,NA,default,18,Yes,NA,Male,English,NA,36
405,default,block2,jon,projective,1,5832,establish,42,establish,C,NA,default,18,Yes,NA,Male,English,NA,37
405,default,block2,olivia,projective,1,4445,reveal,43,reveal,C,NA,default,18,Yes,NA,Male,English,NA,38
405,default,block2,emily,projective,1,6028,see,44,see,C,NA,default,18,Yes,NA,Male,English,NA,39
405,default,block2,pizza,projective,1,2674,MC,45,MC,MC,NA,default,18,Yes,NA,Male,English,NA,40
405,default,block2,josh,projective,0,7152,pretend,46,pretend,C,NA,default,18,Yes,NA,Male,English,NA,41
405,default,block2,frank,projective,1,7448,acknowledge,47,acknowledge,C,NA,default,18,Yes,NA,Male,English,NA,42
405,default,block2,jayden,projective,1,4115,know,48,know,C,NA,default,18,Yes,NA,Male,English,NA,43
405,default,block2,julian,projective,0,5200,think,49,think,C,NA,default,18,Yes,NA,Male,English,NA,44
405,default,block2,danny,projective,0.36,8679,be_right,50,be_right,C,NA,default,18,Yes,NA,Male,English,NA,45
405,default,block2,mary,projective,0,8031,say,51,say,C,NA,default,18,Yes,NA,Male,English,NA,46
405,default,block2,garage,projective,1,3014,MC,52,MC,MC,NA,default,18,Yes,NA,Male,English,NA,47
405,default,block2,tony,projective,0.23,5070,discover,53,discover,C,NA,default,18,Yes,NA,Male,English,NA,48
405,default,block2,jackson,projective,1,4222,admit,54,admit,C,NA,default,18,Yes,NA,Male,English,NA,49
405,default,block2,isabella,projective,0,4080,prove,55,prove,C,NA,default,18,Yes,NA,Male,English,NA,50
405,default,block2,owen,projective,1,3539,announce,56,announce,C,NA,default,18,Yes,NA,Male,English,NA,51
405,default,block2,ballet,projective,1,2178,MC,57,MC,MC,NA,default,18,Yes,NA,Male,English,NA,52
383,default,block1,charley,projective,0.79,14144,announce,5,announce,C,NA,default,18,Yes,NA,Female,English,NA,1
383,default,block1,emma,projective,0.36,10033,think,6,think,C,NA,default,18,Yes,NA,Female,English,NA,2
383,default,block1,sophia,projective,0.72,7625,hear,7,hear,C,NA,default,18,Yes,NA,Female,English,NA,3
383,default,block1,tony,projective,0.77,9225,discover,8,discover,C,NA,default,18,Yes,NA,Female,English,NA,4
383,default,block1,julian,projective,0.28,6454,demonstrate,9,demonstrate,C,NA,default,18,Yes,NA,Female,English,NA,5
383,default,block1,jon,projective,0.62,5719,be_right,10,be_right,C,NA,default,18,Yes,NA,Female,English,NA,6
383,default,block1,kids,projective,0.92,7438,MC,11,MC,MC,NA,default,18,Yes,NA,Female,English,NA,7
383,default,block1,grace,projective,0.28,4749,acknowledge,12,acknowledge,C,NA,default,18,Yes,NA,Female,English,NA,8
383,default,block1,emily,projective,0.25,1927,confirm,13,confirm,C,NA,default,18,Yes,NA,Female,English,NA,9
383,default,block1,zoe,projective,0.35,1643,see,14,see,C,NA,default,18,Yes,NA,Female,English,NA,10
383,default,block1,danny,projective,0.36,1449,be_annoyed,15,be_annoyed,C,NA,default,18,Yes,NA,Female,English,NA,11
383,default,block1,pizza,projective,0.96,2237,MC,16,MC,MC,NA,default,18,Yes,NA,Female,English,NA,12
383,default,block1,josh,projective,0.42,1937,confess,17,confess,C,NA,default,18,Yes,NA,Female,English,NA,13
383,default,block1,hat,projective,0.95,1872,MC,18,MC,MC,NA,default,18,Yes,NA,Female,English,NA,14
383,default,block1,jayden,projective,0.4,1783,reveal,19,reveal,C,NA,default,18,Yes,NA,Female,English,NA,15
383,default,block1,josie,projective,0.3,3320,suggest,20,suggest,C,NA,default,18,Yes,NA,Female,English,NA,16
383,default,block1,ballet,projective,0.96,1944,MC,21,MC,MC,NA,default,18,Yes,NA,Female,English,NA,17
383,default,block1,isabella,projective,0.27,1777,inform,22,inform,C,NA,default,18,Yes,NA,Female,English,NA,18
383,default,block1,muffins,projective,0.97,1840,MC,23,MC,MC,NA,default,18,Yes,NA,Female,English,NA,19
383,default,block1,garage,projective,0.96,5482,MC,24,MC,MC,NA,default,18,Yes,NA,Female,English,NA,20
383,default,block1,owen,projective,0.36,1538,establish,25,establish,C,NA,default,18,Yes,NA,Female,English,NA,21
383,default,block1,mia,projective,0.36,1188,say,26,say,C,NA,default,18,Yes,NA,Female,English,NA,22
383,default,block1,olivia,projective,0.43,1289,admit,27,admit,C,NA,default,18,Yes,NA,Female,English,NA,23
383,default,block1,frank,projective,0.45,1170,pretend,28,pretend,C,NA,default,18,Yes,NA,Female,English,NA,24
383,default,block1,jackson,projective,0.22,1076,know,29,know,C,NA,default,18,Yes,NA,Female,English,NA,25
383,default,block1,mary,projective,0.24,1147,prove,30,prove,C,NA,default,18,Yes,NA,Female,English,NA,26
383,default,block2,zoe,ai,0.82,10689,see,32,see,C,NA,default,18,Yes,NA,Female,English,NA,27
383,default,block2,danny,ai,0.74,8593,be_annoyed,33,be_annoyed,C,NA,default,18,Yes,NA,Female,English,NA,28
383,default,block2,kids,ai,0.03,6045,MC,34,MC,MC,NA,default,18,Yes,NA,Female,English,NA,29
383,default,block2,jon,ai,0.23,7748,be_right,35,be_right,C,NA,default,18,Yes,NA,Female,English,NA,30
383,default,block2,emma,ai,0.25,7294,think,36,think,C,NA,default,18,Yes,NA,Female,English,NA,31
383,default,block2,grace,ai,0.73,3997,acknowledge,37,acknowledge,C,NA,default,18,Yes,NA,Female,English,NA,32
383,default,block2,julian,ai,0.64,36637,demonstrate,38,demonstrate,C,NA,default,18,Yes,NA,Female,English,NA,33
383,default,block2,josie,ai,0.24,5312,suggest,39,suggest,C,NA,default,18,Yes,NA,Female,English,NA,34
383,default,block2,sophia,ai,0.3,4915,hear,40,hear,C,NA,default,18,Yes,NA,Female,English,NA,35
383,default,block2,isabella,ai,0.68,6702,inform,41,inform,C,NA,default,18,Yes,NA,Female,English,NA,36
383,default,block2,frank,ai,0.78,7623,pretend,42,pretend,C,NA,default,18,Yes,NA,Female,English,NA,37
383,default,block2,tony,ai,0.17,6764,discover,43,discover,C,NA,default,18,Yes,NA,Female,English,NA,38
383,default,block2,charley,ai,0.52,11519,announce,44,announce,C,NA,default,18,Yes,NA,Female,English,NA,39
383,default,block2,josh,ai,0.91,14881,confess,45,confess,C,NA,default,18,Yes,NA,Female,English,NA,40
383,default,block2,muffins,ai,0.09,4327,MC,46,MC,MC,NA,default,18,Yes,NA,Female,English,NA,41
383,default,block2,mary,ai,0.33,11917,prove,47,prove,C,NA,default,18,Yes,NA,Female,English,NA,42
383,default,block2,ballet,ai,0.03,5095,MC,48,MC,MC,NA,default,18,Yes,NA,Female,English,NA,43
383,default,block2,jackson,ai,0.76,6051,know,49,know,C,NA,default,18,Yes,NA,Female,English,NA,44
383,default,block2,hat,ai,0.04,3090,MC,50,MC,MC,NA,default,18,Yes,NA,Female,English,NA,45
383,default,block2,owen,ai,0.81,7463,establish,51,establish,C,NA,default,18,Yes,NA,Female,English,NA,46
383,default,block2,jayden,ai,0.73,4853,reveal,52,reveal,C,NA,default,18,Yes,NA,Female,English,NA,47
383,default,block2,olivia,ai,0.88,7210,admit,53,admit,C,NA,default,18,Yes,NA,Female,English,NA,48
383,default,block2,garage,ai,0.03,3682,MC,54,MC,MC,NA,default,18,Yes,NA,Female,English,NA,49
383,default,block2,emily,ai,0.29,4911,confirm,55,confirm,C,NA,default,18,Yes,NA,Female,English,NA,50
383,default,block2,pizza,ai,0.0600000000000001,7270,MC,56,MC,MC,NA,default,18,Yes,NA,Female,English,NA,51
383,default,block2,mia,ai,0.7,3243,say,57,say,C,NA,default,18,Yes,NA,Female,English,NA,52
583,default,block1,mary,ai,0.99,21859,admit,5,admit,C,NA,default,72,Yes,I thought this was difficult and possibly subjective? I'd be curious to know what the researchers had in mind and what the "correct" answers were. I felt like I was trying to apply some kind of logic or reasoning to determine the answers and sometimes wondered if I was over  thinking it or if I was right!,Female,English,NA,1
583,default,block1,isabella,ai,0.98,19152,acknowledge,6,acknowledge,C,NA,default,72,Yes,I thought this was difficult and possibly subjective? I'd be curious to know what the researchers had in mind and what the "correct" answers were. I felt like I was trying to apply some kind of logic or reasoning to determine the answers and sometimes wondered if I was over  thinking it or if I was right!,Female,English,NA,2
583,default,block1,muffins,ai,0.03,11800,MC,7,MC,MC,NA,default,72,Yes,I thought this was difficult and possibly subjective? I'd be curious to know what the researchers had in mind and what the "correct" answers were. I felt like I was trying to apply some kind of logic or reasoning to determine the answers and sometimes wondered if I was over  thinking it or if I was right!,Female,English,NA,3
583,default,block1,pizza,ai,0.04,7796,MC,8,MC,MC,NA,default,72,Yes,I thought this was difficult and possibly subjective? I'd be curious to know what the researchers had in mind and what the "correct" answers were. I felt like I was trying to apply some kind of logic or reasoning to determine the answers and sometimes wondered if I was over  thinking it or if I was right!,Female,English,NA,4
583,default,block1,jayden,ai,0.96,28636,reveal,9,reveal,C,NA,default,72,Yes,I thought this was difficult and possibly subjective? I'd be curious to know what the researchers had in mind and what the "correct" answers were. I felt like I was trying to apply some kind of logic or reasoning to determine the answers and sometimes wondered if I was over  thinking it or if I was right!,Female,English,NA,5
583,default,block1,owen,ai,0.03,30693,be_right,10,be_right,C,NA,default,72,Yes,I thought this was difficult and possibly subjective? I'd be curious to know what the researchers had in mind and what the "correct" answers were. I felt like I was trying to apply some kind of logic or reasoning to determine the answers and sometimes wondered if I was over  thinking it or if I was right!,Female,English,NA,6
583,default,block1,olivia,ai,0.97,19335,confess,11,confess,C,NA,default,72,Yes,I thought this was difficult and possibly subjective? I'd be curious to know what the researchers had in mind and what the "correct" answers were. I felt like I was trying to apply some kind of logic or reasoning to determine the answers and sometimes wondered if I was over  thinking it or if I was right!,Female,English,NA,7
583,default,block1,tony,ai,0.95,48316,announce,12,announce,C,NA,default,72,Yes,I thought this was difficult and possibly subjective? I'd be curious to know what the researchers had in mind and what the "correct" answers were. I felt like I was trying to apply some kind of logic or reasoning to determine the answers and sometimes wondered if I was over  thinking it or if I was right!,Female,English,NA,8
583,default,block1,ballet,ai,0.02,5783,MC,13,MC,MC,NA,default,72,Yes,I thought this was difficult and possibly subjective? I'd be curious to know what the researchers had in mind and what the "correct" answers were. I felt like I was trying to apply some kind of logic or reasoning to determine the answers and sometimes wondered if I was over  thinking it or if I was right!,Female,English,NA,9
583,default,block1,kids,ai,0.03,6255,MC,14,MC,MC,NA,default,72,Yes,I thought this was difficult and possibly subjective? I'd be curious to know what the researchers had in mind and what the "correct" answers were. I felt like I was trying to apply some kind of logic or reasoning to determine the answers and sometimes wondered if I was over  thinking it or if I was right!,Female,English,NA,10
583,default,block1,grace,ai,0.96,9840,inform,15,inform,C,NA,default,72,Yes,I thought this was difficult and possibly subjective? I'd be curious to know what the researchers had in mind and what the "correct" answers were. I felt like I was trying to apply some kind of logic or reasoning to determine the answers and sometimes wondered if I was over  thinking it or if I was right!,Female,English,NA,11
583,default,block1,mia,ai,0.97,42537,confirm,16,confirm,C,NA,default,72,Yes,I thought this was difficult and possibly subjective? I'd be curious to know what the researchers had in mind and what the "correct" answers were. I felt like I was trying to apply some kind of logic or reasoning to determine the answers and sometimes wondered if I was over  thinking it or if I was right!,Female,English,NA,12
583,default,block1,josh,ai,0.02,28784,pretend,17,pretend,C,NA,default,72,Yes,I thought this was difficult and possibly subjective? I'd be curious to know what the researchers had in mind and what the "correct" answers were. I felt like I was trying to apply some kind of logic or reasoning to determine the answers and sometimes wondered if I was over  thinking it or if I was right!,Female,English,NA,13
583,default,block1,julian,ai,0.0600000000000001,11872,discover,18,discover,C,NA,default,72,Yes,I thought this was difficult and possibly subjective? I'd be curious to know what the researchers had in mind and what the "correct" answers were. I felt like I was trying to apply some kind of logic or reasoning to determine the answers and sometimes wondered if I was over  thinking it or if I was right!,Female,English,NA,14
583,default,block1,jon,ai,0.99,16004,suggest,19,suggest,C,NA,default,72,Yes,I thought this was difficult and possibly subjective? I'd be curious to know what the researchers had in mind and what the "correct" answers were. I felt like I was trying to apply some kind of logic or reasoning to determine the answers and sometimes wondered if I was over  thinking it or if I was right!,Female,English,NA,15
583,default,block1,emma,ai,0.98,8588,be_annoyed,20,be_annoyed,C,NA,default,72,Yes,I thought this was difficult and possibly subjective? I'd be curious to know what the researchers had in mind and what the "correct" answers were. I felt like I was trying to apply some kind of logic or reasoning to determine the answers and sometimes wondered if I was over  thinking it or if I was right!,Female,English,NA,16
583,default,block1,jackson,ai,0.94,6232,know,21,know,C,NA,default,72,Yes,I thought this was difficult and possibly subjective? I'd be curious to know what the researchers had in mind and what the "correct" answers were. I felt like I was trying to apply some kind of logic or reasoning to determine the answers and sometimes wondered if I was over  thinking it or if I was right!,Female,English,NA,17
583,default,block1,frank,ai,0.97,20992,hear,22,hear,C,NA,default,72,Yes,I thought this was difficult and possibly subjective? I'd be curious to know what the researchers had in mind and what the "correct" answers were. I felt like I was trying to apply some kind of logic or reasoning to determine the answers and sometimes wondered if I was over  thinking it or if I was right!,Female,English,NA,18
583,default,block1,josie,ai,0.03,19724,establish,23,establish,C,NA,default,72,Yes,I thought this was difficult and possibly subjective? I'd be curious to know what the researchers had in mind and what the "correct" answers were. I felt like I was trying to apply some kind of logic or reasoning to determine the answers and sometimes wondered if I was over  thinking it or if I was right!,Female,English,NA,19
583,default,block1,zoe,ai,0.97,11128,think,24,think,C,NA,default,72,Yes,I thought this was difficult and possibly subjective? I'd be curious to know what the researchers had in mind and what the "correct" answers were. I felt like I was trying to apply some kind of logic or reasoning to determine the answers and sometimes wondered if I was over  thinking it or if I was right!,Female,English,NA,20
583,default,block1,hat,ai,0.05,6215,MC,25,MC,MC,NA,default,72,Yes,I thought this was difficult and possibly subjective? I'd be curious to know what the researchers had in mind and what the "correct" answers were. I felt like I was trying to apply some kind of logic or reasoning to determine the answers and sometimes wondered if I was over  thinking it or if I was right!,Female,English,NA,21
583,default,block1,emily,ai,1,11432,see,26,see,C,NA,default,72,Yes,I thought this was difficult and possibly subjective? I'd be curious to know what the researchers had in mind and what the "correct" answers were. I felt like I was trying to apply some kind of logic or reasoning to determine the answers and sometimes wondered if I was over  thinking it or if I was right!,Female,English,NA,22
583,default,block1,danny,ai,0.98,34972,demonstrate,27,demonstrate,C,NA,default,72,Yes,I thought this was difficult and possibly subjective? I'd be curious to know what the researchers had in mind and what the "correct" answers were. I felt like I was trying to apply some kind of logic or reasoning to determine the answers and sometimes wondered if I was over  thinking it or if I was right!,Female,English,NA,23
583,default,block1,garage,ai,0.03,4703,MC,28,MC,MC,NA,default,72,Yes,I thought this was difficult and possibly subjective? I'd be curious to know what the researchers had in mind and what the "correct" answers were. I felt like I was trying to apply some kind of logic or reasoning to determine the answers and sometimes wondered if I was over  thinking it or if I was right!,Female,English,NA,24
583,default,block1,charley,ai,0.96,21363,say,29,say,C,NA,default,72,Yes,I thought this was difficult and possibly subjective? I'd be curious to know what the researchers had in mind and what the "correct" answers were. I felt like I was trying to apply some kind of logic or reasoning to determine the answers and sometimes wondered if I was over  thinking it or if I was right!,Female,English,NA,25
583,default,block1,sophia,ai,0.97,56313,prove,30,prove,C,NA,default,72,Yes,I thought this was difficult and possibly subjective? I'd be curious to know what the researchers had in mind and what the "correct" answers were. I felt like I was trying to apply some kind of logic or reasoning to determine the answers and sometimes wondered if I was over  thinking it or if I was right!,Female,English,NA,26
583,default,block2,tony,projective,0.96,14883,announce,32,announce,C,NA,default,72,Yes,I thought this was difficult and possibly subjective? I'd be curious to know what the researchers had in mind and what the "correct" answers were. I felt like I was trying to apply some kind of logic or reasoning to determine the answers and sometimes wondered if I was over  thinking it or if I was right!,Female,English,NA,27
583,default,block2,garage,projective,0.98,4832,MC,33,MC,MC,NA,default,72,Yes,I thought this was difficult and possibly subjective? I'd be curious to know what the researchers had in mind and what the "correct" answers were. I felt like I was trying to apply some kind of logic or reasoning to determine the answers and sometimes wondered if I was over  thinking it or if I was right!,Female,English,NA,28
583,default,block2,danny,projective,0.97,20087,demonstrate,34,demonstrate,C,NA,default,72,Yes,I thought this was difficult and possibly subjective? I'd be curious to know what the researchers had in mind and what the "correct" answers were. I felt like I was trying to apply some kind of logic or reasoning to determine the answers and sometimes wondered if I was over  thinking it or if I was right!,Female,English,NA,29
583,default,block2,josie,projective,0.99,19656,establish,35,establish,C,NA,default,72,Yes,I thought this was difficult and possibly subjective? I'd be curious to know what the researchers had in mind and what the "correct" answers were. I felt like I was trying to apply some kind of logic or reasoning to determine the answers and sometimes wondered if I was over  thinking it or if I was right!,Female,English,NA,30
583,default,block2,olivia,projective,0.97,8708,confess,36,confess,C,NA,default,72,Yes,I thought this was difficult and possibly subjective? I'd be curious to know what the researchers had in mind and what the "correct" answers were. I felt like I was trying to apply some kind of logic or reasoning to determine the answers and sometimes wondered if I was over  thinking it or if I was right!,Female,English,NA,31
583,default,block2,ballet,projective,0.97,4596,MC,37,MC,MC,NA,default,72,Yes,I thought this was difficult and possibly subjective? I'd be curious to know what the researchers had in mind and what the "correct" answers were. I felt like I was trying to apply some kind of logic or reasoning to determine the answers and sometimes wondered if I was over  thinking it or if I was right!,Female,English,NA,32
583,default,block2,julian,projective,0.95,14568,discover,38,discover,C,NA,default,72,Yes,I thought this was difficult and possibly subjective? I'd be curious to know what the researchers had in mind and what the "correct" answers were. I felt like I was trying to apply some kind of logic or reasoning to determine the answers and sometimes wondered if I was over  thinking it or if I was right!,Female,English,NA,33
583,default,block2,pizza,projective,0.98,5784,MC,39,MC,MC,NA,default,72,Yes,I thought this was difficult and possibly subjective? I'd be curious to know what the researchers had in mind and what the "correct" answers were. I felt like I was trying to apply some kind of logic or reasoning to determine the answers and sometimes wondered if I was over  thinking it or if I was right!,Female,English,NA,34
583,default,block2,hat,projective,0.99,5761,MC,40,MC,MC,NA,default,72,Yes,I thought this was difficult and possibly subjective? I'd be curious to know what the researchers had in mind and what the "correct" answers were. I felt like I was trying to apply some kind of logic or reasoning to determine the answers and sometimes wondered if I was over  thinking it or if I was right!,Female,English,NA,35
583,default,block2,frank,projective,0.95,41888,hear,41,hear,C,NA,default,72,Yes,I thought this was difficult and possibly subjective? I'd be curious to know what the researchers had in mind and what the "correct" answers were. I felt like I was trying to apply some kind of logic or reasoning to determine the answers and sometimes wondered if I was over  thinking it or if I was right!,Female,English,NA,36
583,default,block2,kids,projective,0.99,5776,MC,42,MC,MC,NA,default,72,Yes,I thought this was difficult and possibly subjective? I'd be curious to know what the researchers had in mind and what the "correct" answers were. I felt like I was trying to apply some kind of logic or reasoning to determine the answers and sometimes wondered if I was over  thinking it or if I was right!,Female,English,NA,37
583,default,block2,jayden,projective,0.97,6120,reveal,43,reveal,C,NA,default,72,Yes,I thought this was difficult and possibly subjective? I'd be curious to know what the researchers had in mind and what the "correct" answers were. I felt like I was trying to apply some kind of logic or reasoning to determine the answers and sometimes wondered if I was over  thinking it or if I was right!,Female,English,NA,38
583,default,block2,grace,projective,0.98,9788,inform,44,inform,C,NA,default,72,Yes,I thought this was difficult and possibly subjective? I'd be curious to know what the researchers had in mind and what the "correct" answers were. I felt like I was trying to apply some kind of logic or reasoning to determine the answers and sometimes wondered if I was over  thinking it or if I was right!,Female,English,NA,39
583,default,block2,jackson,projective,0.96,7264,know,45,know,C,NA,default,72,Yes,I thought this was difficult and possibly subjective? I'd be curious to know what the researchers had in mind and what the "correct" answers were. I felt like I was trying to apply some kind of logic or reasoning to determine the answers and sometimes wondered if I was over  thinking it or if I was right!,Female,English,NA,40
583,default,block2,owen,projective,0.96,25512,be_right,46,be_right,C,NA,default,72,Yes,I thought this was difficult and possibly subjective? I'd be curious to know what the researchers had in mind and what the "correct" answers were. I felt like I was trying to apply some kind of logic or reasoning to determine the answers and sometimes wondered if I was over  thinking it or if I was right!,Female,English,NA,41
583,default,block2,isabella,projective,0.95,7784,acknowledge,47,acknowledge,C,NA,default,72,Yes,I thought this was difficult and possibly subjective? I'd be curious to know what the researchers had in mind and what the "correct" answers were. I felt like I was trying to apply some kind of logic or reasoning to determine the answers and sometimes wondered if I was over  thinking it or if I was right!,Female,English,NA,42
583,default,block2,jon,projective,0.03,22707,suggest,48,suggest,C,NA,default,72,Yes,I thought this was difficult and possibly subjective? I'd be curious to know what the researchers had in mind and what the "correct" answers were. I felt like I was trying to apply some kind of logic or reasoning to determine the answers and sometimes wondered if I was over  thinking it or if I was right!,Female,English,NA,43
583,default,block2,sophia,projective,0.01,27244,prove,49,prove,C,NA,default,72,Yes,I thought this was difficult and possibly subjective? I'd be curious to know what the researchers had in mind and what the "correct" answers were. I felt like I was trying to apply some kind of logic or reasoning to determine the answers and sometimes wondered if I was over  thinking it or if I was right!,Female,English,NA,44
583,default,block2,josh,projective,0.01,9992,pretend,50,pretend,C,NA,default,72,Yes,I thought this was difficult and possibly subjective? I'd be curious to know what the researchers had in mind and what the "correct" answers were. I felt like I was trying to apply some kind of logic or reasoning to determine the answers and sometimes wondered if I was over  thinking it or if I was right!,Female,English,NA,45
583,default,block2,mary,projective,0.99,31360,admit,51,admit,C,NA,default,72,Yes,I thought this was difficult and possibly subjective? I'd be curious to know what the researchers had in mind and what the "correct" answers were. I felt like I was trying to apply some kind of logic or reasoning to determine the answers and sometimes wondered if I was over  thinking it or if I was right!,Female,English,NA,46
583,default,block2,muffins,projective,0.98,4671,MC,52,MC,MC,NA,default,72,Yes,I thought this was difficult and possibly subjective? I'd be curious to know what the researchers had in mind and what the "correct" answers were. I felt like I was trying to apply some kind of logic or reasoning to determine the answers and sometimes wondered if I was over  thinking it or if I was right!,Female,English,NA,47
583,default,block2,emily,projective,0.97,7252,see,53,see,C,NA,default,72,Yes,I thought this was difficult and possibly subjective? I'd be curious to know what the researchers had in mind and what the "correct" answers were. I felt like I was trying to apply some kind of logic or reasoning to determine the answers and sometimes wondered if I was over  thinking it or if I was right!,Female,English,NA,48
583,default,block2,zoe,projective,0.03,18988,think,54,think,C,NA,default,72,Yes,I thought this was difficult and possibly subjective? I'd be curious to know what the researchers had in mind and what the "correct" answers were. I felt like I was trying to apply some kind of logic or reasoning to determine the answers and sometimes wondered if I was over  thinking it or if I was right!,Female,English,NA,49
583,default,block2,mia,projective,0.98,24975,confirm,55,confirm,C,NA,default,72,Yes,I thought this was difficult and possibly subjective? I'd be curious to know what the researchers had in mind and what the "correct" answers were. I felt like I was trying to apply some kind of logic or reasoning to determine the answers and sometimes wondered if I was over  thinking it or if I was right!,Female,English,NA,50
583,default,block2,charley,projective,0.01,25572,say,56,say,C,NA,default,72,Yes,I thought this was difficult and possibly subjective? I'd be curious to know what the researchers had in mind and what the "correct" answers were. I felt like I was trying to apply some kind of logic or reasoning to determine the answers and sometimes wondered if I was over  thinking it or if I was right!,Female,English,NA,51
583,default,block2,emma,projective,0.97,9840,be_annoyed,57,be_annoyed,C,NA,default,72,Yes,I thought this was difficult and possibly subjective? I'd be curious to know what the researchers had in mind and what the "correct" answers were. I felt like I was trying to apply some kind of logic or reasoning to determine the answers and sometimes wondered if I was over  thinking it or if I was right!,Female,English,NA,52
567,default,block1,jackson,ai,1,9372,reveal,5,reveal,C,NA,default,19,Yes,NA,Female,NA,NA,1
567,default,block1,julian,ai,1,8104,pretend,6,pretend,C,NA,default,19,Yes,NA,Female,NA,NA,2
567,default,block1,hat,ai,0,4282,MC,7,MC,MC,NA,default,19,Yes,NA,Female,NA,NA,3
567,default,block1,tony,ai,1,10970,think,8,think,C,NA,default,19,Yes,NA,Female,NA,NA,4
567,default,block1,zoe,ai,1,6878,establish,9,establish,C,NA,default,19,Yes,NA,Female,NA,NA,5
567,default,block1,danny,ai,1,8969,hear,10,hear,C,NA,default,19,Yes,NA,Female,NA,NA,6
567,default,block1,garage,ai,0,4762,MC,11,MC,MC,NA,default,19,Yes,NA,Female,NA,NA,7
567,default,block1,jon,ai,1,7006,demonstrate,12,demonstrate,C,NA,default,19,Yes,NA,Female,NA,NA,8
567,default,block1,isabella,ai,1,9416,say,13,say,C,NA,default,19,Yes,NA,Female,NA,NA,9
567,default,block1,mary,ai,1,4806,know,14,know,C,NA,default,19,Yes,NA,Female,NA,NA,10
567,default,block1,pizza,ai,0,3973,MC,15,MC,MC,NA,default,19,Yes,NA,Female,NA,NA,11
567,default,block1,ballet,ai,0,4051,MC,16,MC,MC,NA,default,19,Yes,NA,Female,NA,NA,12
567,default,block1,frank,ai,1,4568,discover,17,discover,C,NA,default,19,Yes,NA,Female,NA,NA,13
567,default,block1,josh,ai,1,4925,announce,18,announce,C,NA,default,19,Yes,NA,Female,NA,NA,14
567,default,block1,grace,ai,1,4843,be_annoyed,19,be_annoyed,C,NA,default,19,Yes,NA,Female,NA,NA,15
567,default,block1,kids,ai,0,2987,MC,20,MC,MC,NA,default,19,Yes,NA,Female,NA,NA,16
567,default,block1,sophia,ai,1,4032,prove,21,prove,C,NA,default,19,Yes,NA,Female,NA,NA,17
567,default,block1,emily,ai,1,4674,see,22,see,C,NA,default,19,Yes,NA,Female,NA,NA,18
567,default,block1,josie,ai,1,7561,confirm,23,confirm,C,NA,default,19,Yes,NA,Female,NA,NA,19
567,default,block1,emma,ai,1,5974,be_right,24,be_right,C,NA,default,19,Yes,NA,Female,NA,NA,20
567,default,block1,charley,ai,1,12591,admit,25,admit,C,NA,default,19,Yes,NA,Female,NA,NA,21
567,default,block1,olivia,ai,1,2856,confess,26,confess,C,NA,default,19,Yes,NA,Female,NA,NA,22
567,default,block1,muffins,ai,0,2630,MC,27,MC,MC,NA,default,19,Yes,NA,Female,NA,NA,23
567,default,block1,mia,ai,1,3579,suggest,28,suggest,C,NA,default,19,Yes,NA,Female,NA,NA,24
567,default,block1,jayden,ai,1,2357,inform,29,inform,C,NA,default,19,Yes,NA,Female,NA,NA,25
567,default,block1,owen,ai,1,3472,acknowledge,30,acknowledge,C,NA,default,19,Yes,NA,Female,NA,NA,26
567,default,block2,frank,projective,1,7961,discover,32,discover,C,NA,default,19,Yes,NA,Female,NA,NA,27
567,default,block2,danny,projective,1,4938,hear,33,hear,C,NA,default,19,Yes,NA,Female,NA,NA,28
567,default,block2,grace,projective,1,2732,be_annoyed,34,be_annoyed,C,NA,default,19,Yes,NA,Female,NA,NA,29
567,default,block2,ballet,projective,1,3118,MC,35,MC,MC,NA,default,19,Yes,NA,Female,NA,NA,30
567,default,block2,isabella,projective,0.33,6572,say,36,say,C,NA,default,19,Yes,NA,Female,NA,NA,31
567,default,block2,kids,projective,1,3796,MC,37,MC,MC,NA,default,19,Yes,NA,Female,NA,NA,32
567,default,block2,jackson,projective,1,3828,reveal,38,reveal,C,NA,default,19,Yes,NA,Female,NA,NA,33
567,default,block2,emma,projective,0.25,9962,be_right,39,be_right,C,NA,default,19,Yes,NA,Female,NA,NA,34
567,default,block2,mary,projective,1,3778,know,40,know,C,NA,default,19,Yes,NA,Female,NA,NA,35
567,default,block2,sophia,projective,0.56,5372,prove,41,prove,C,NA,default,19,Yes,NA,Female,NA,NA,36
567,default,block2,muffins,projective,1,3328,MC,42,MC,MC,NA,default,19,Yes,NA,Female,NA,NA,37
567,default,block2,owen,projective,1,14718,acknowledge,43,acknowledge,C,NA,default,19,Yes,NA,Female,NA,NA,38
567,default,block2,hat,projective,0.98,2592,MC,44,MC,MC,NA,default,19,Yes,NA,Female,NA,NA,39
567,default,block2,emily,projective,1,4258,see,45,see,C,NA,default,19,Yes,NA,Female,NA,NA,40
567,default,block2,jon,projective,0.5,4579,demonstrate,46,demonstrate,C,NA,default,19,Yes,NA,Female,NA,NA,41
567,default,block2,charley,projective,0.35,5835,admit,47,admit,C,NA,default,19,Yes,NA,Female,NA,NA,42
567,default,block2,pizza,projective,1,7544,MC,48,MC,MC,NA,default,19,Yes,NA,Female,NA,NA,43
567,default,block2,josh,projective,0.04,3488,announce,49,announce,C,NA,default,19,Yes,NA,Female,NA,NA,44
567,default,block2,jayden,projective,1,4461,inform,50,inform,C,NA,default,19,Yes,NA,Female,NA,NA,45
567,default,block2,julian,projective,0.16,4888,pretend,51,pretend,C,NA,default,19,Yes,NA,Female,NA,NA,46
567,default,block2,tony,projective,0.18,8292,think,52,think,C,NA,default,19,Yes,NA,Female,NA,NA,47
567,default,block2,mia,projective,0.23,3706,suggest,53,suggest,C,NA,default,19,Yes,NA,Female,NA,NA,48
567,default,block2,josie,projective,0.08,5163,confirm,54,confirm,C,NA,default,19,Yes,NA,Female,NA,NA,49
567,default,block2,zoe,projective,0.85,5556,establish,55,establish,C,NA,default,19,Yes,NA,Female,NA,NA,50
567,default,block2,garage,projective,1,2517,MC,56,MC,MC,NA,default,19,Yes,NA,Female,NA,NA,51
567,default,block2,olivia,projective,0.11,7169,confess,57,confess,C,NA,default,19,Yes,NA,Female,NA,NA,52
687,default,block1,frank,ai,0.95,16774,be_right,5,be_right,C,NA,default,51,Yes,NA,Male,English,NA,1
687,default,block1,josie,ai,0.87,8047,reveal,6,reveal,C,NA,default,51,Yes,NA,Male,English,NA,2
687,default,block1,julian,ai,0.88,8748,inform,7,inform,C,NA,default,51,Yes,NA,Male,English,NA,3
687,default,block1,hat,ai,0.07,4796,MC,8,MC,MC,NA,default,51,Yes,NA,Male,English,NA,4
687,default,block1,jayden,ai,0.88,5560,see,9,see,C,NA,default,51,Yes,NA,Male,English,NA,5
687,default,block1,danny,ai,0.8,5344,confirm,10,confirm,C,NA,default,51,Yes,NA,Male,English,NA,6
687,default,block1,owen,ai,0.89,6112,think,11,think,C,NA,default,51,Yes,NA,Male,English,NA,7
687,default,block1,charley,ai,0.88,5510,announce,12,announce,C,NA,default,51,Yes,NA,Male,English,NA,8
687,default,block1,mary,ai,0.92,6153,be_annoyed,13,be_annoyed,C,NA,default,51,Yes,NA,Male,English,NA,9
687,default,block1,pizza,ai,0.07,5163,MC,14,MC,MC,NA,default,51,Yes,NA,Male,English,NA,10
687,default,block1,josh,ai,0.9,7429,admit,15,admit,C,NA,default,51,Yes,NA,Male,English,NA,11
687,default,block1,kids,ai,0.12,8569,MC,16,MC,MC,NA,default,51,Yes,NA,Male,English,NA,12
687,default,block1,grace,ai,0.91,4499,say,17,say,C,NA,default,51,Yes,NA,Male,English,NA,13
687,default,block1,isabella,ai,0.91,4705,demonstrate,18,demonstrate,C,NA,default,51,Yes,NA,Male,English,NA,14
687,default,block1,emma,ai,0.92,5370,suggest,19,suggest,C,NA,default,51,Yes,NA,Male,English,NA,15
687,default,block1,olivia,ai,0.87,18222,hear,20,hear,C,NA,default,51,Yes,NA,Male,English,NA,16
687,default,block1,mia,ai,0.89,3844,prove,21,prove,C,NA,default,51,Yes,NA,Male,English,NA,17
687,default,block1,tony,ai,0.93,3433,establish,22,establish,C,NA,default,51,Yes,NA,Male,English,NA,18
687,default,block1,jackson,ai,0.94,4630,acknowledge,23,acknowledge,C,NA,default,51,Yes,NA,Male,English,NA,19
687,default,block1,garage,ai,0.0600000000000001,4128,MC,24,MC,MC,NA,default,51,Yes,NA,Male,English,NA,20
687,default,block1,muffins,ai,0.07,5999,MC,25,MC,MC,NA,default,51,Yes,NA,Male,English,NA,21
687,default,block1,zoe,ai,0.9,3261,discover,26,discover,C,NA,default,51,Yes,NA,Male,English,NA,22
687,default,block1,sophia,ai,0.92,9556,know,27,know,C,NA,default,51,Yes,NA,Male,English,NA,23
687,default,block1,emily,ai,0.85,3898,confess,28,confess,C,NA,default,51,Yes,NA,Male,English,NA,24
687,default,block1,ballet,ai,0.08,5164,MC,29,MC,MC,NA,default,51,Yes,NA,Male,English,NA,25
687,default,block1,jon,ai,0.91,5694,pretend,30,pretend,C,NA,default,51,Yes,NA,Male,English,NA,26
687,default,block2,frank,projective,0.1,7983,be_right,32,be_right,C,NA,default,51,Yes,NA,Male,English,NA,27
687,default,block2,julian,projective,0.15,14307,inform,33,inform,C,NA,default,51,Yes,NA,Male,English,NA,28
687,default,block2,olivia,projective,0.11,8288,hear,34,hear,C,NA,default,51,Yes,NA,Male,English,NA,29
687,default,block2,isabella,projective,0.17,6846,demonstrate,35,demonstrate,C,NA,default,51,Yes,NA,Male,English,NA,30
687,default,block2,pizza,projective,0.98,4788,MC,36,MC,MC,NA,default,51,Yes,NA,Male,English,NA,31
687,default,block2,emma,projective,0.1,3130,suggest,37,suggest,C,NA,default,51,Yes,NA,Male,English,NA,32
687,default,block2,hat,projective,0.92,3369,MC,38,MC,MC,NA,default,51,Yes,NA,Male,English,NA,33
687,default,block2,josh,projective,0.13,3138,admit,39,admit,C,NA,default,51,Yes,NA,Male,English,NA,34
687,default,block2,garage,projective,0.95,3727,MC,40,MC,MC,NA,default,51,Yes,NA,Male,English,NA,35
687,default,block2,kids,projective,0.99,5353,MC,41,MC,MC,NA,default,51,Yes,NA,Male,English,NA,36
687,default,block2,ballet,projective,0.92,4190,MC,42,MC,MC,NA,default,51,Yes,NA,Male,English,NA,37
687,default,block2,owen,projective,0.13,3361,think,43,think,C,NA,default,51,Yes,NA,Male,English,NA,38
687,default,block2,mia,projective,0.09,2834,prove,44,prove,C,NA,default,51,Yes,NA,Male,English,NA,39
687,default,block2,tony,projective,0.11,2589,establish,45,establish,C,NA,default,51,Yes,NA,Male,English,NA,40
687,default,block2,jon,projective,0.17,5302,pretend,46,pretend,C,NA,default,51,Yes,NA,Male,English,NA,41
687,default,block2,jayden,projective,0.13,4689,see,47,see,C,NA,default,51,Yes,NA,Male,English,NA,42
687,default,block2,josie,projective,0.13,5841,reveal,48,reveal,C,NA,default,51,Yes,NA,Male,English,NA,43
687,default,block2,emily,projective,0.09,2177,confess,49,confess,C,NA,default,51,Yes,NA,Male,English,NA,44
687,default,block2,mary,projective,0.14,2186,be_annoyed,50,be_annoyed,C,NA,default,51,Yes,NA,Male,English,NA,45
687,default,block2,danny,projective,0.13,7854,confirm,51,confirm,C,NA,default,51,Yes,NA,Male,English,NA,46
687,default,block2,muffins,projective,0.96,3038,MC,52,MC,MC,NA,default,51,Yes,NA,Male,English,NA,47
687,default,block2,charley,projective,0.13,3978,announce,53,announce,C,NA,default,51,Yes,NA,Male,English,NA,48
687,default,block2,zoe,projective,0.08,2752,discover,54,discover,C,NA,default,51,Yes,NA,Male,English,NA,49
687,default,block2,jackson,projective,0.13,2210,acknowledge,55,acknowledge,C,NA,default,51,Yes,NA,Male,English,NA,50
687,default,block2,sophia,projective,0.11,2492,know,56,know,C,NA,default,51,Yes,NA,Male,English,NA,51
687,default,block2,grace,projective,0.13,2337,say,57,say,C,NA,default,51,Yes,NA,Male,English,NA,52
679,default,block1,owen,ai,0.94,147945,establish,5,establish,C,NA,default,32,Yes,The meaning of some of these statements would depend highly on the context of the situation and the things said before and after them.,Female,English,NA,1
679,default,block1,jon,ai,0.98,8094,know,6,know,C,NA,default,32,Yes,The meaning of some of these statements would depend highly on the context of the situation and the things said before and after them.,Female,English,NA,2
679,default,block1,zoe,ai,0.95,48133,acknowledge,7,acknowledge,C,NA,default,32,Yes,The meaning of some of these statements would depend highly on the context of the situation and the things said before and after them.,Female,English,NA,3
679,default,block1,ballet,ai,0,5760,MC,8,MC,MC,NA,default,32,Yes,The meaning of some of these statements would depend highly on the context of the situation and the things said before and after them.,Female,English,NA,4
679,default,block1,danny,ai,0.96,9120,think,9,think,C,NA,default,32,Yes,The meaning of some of these statements would depend highly on the context of the situation and the things said before and after them.,Female,English,NA,5
679,default,block1,emily,ai,0.95,13962,hear,10,hear,C,NA,default,32,Yes,The meaning of some of these statements would depend highly on the context of the situation and the things said before and after them.,Female,English,NA,6
679,default,block1,charley,ai,0.96,15306,suggest,11,suggest,C,NA,default,32,Yes,The meaning of some of these statements would depend highly on the context of the situation and the things said before and after them.,Female,English,NA,7
679,default,block1,sophia,ai,0.97,4237,reveal,12,reveal,C,NA,default,32,Yes,The meaning of some of these statements would depend highly on the context of the situation and the things said before and after them.,Female,English,NA,8
679,default,block1,olivia,ai,0.05,29306,be_right,13,be_right,C,NA,default,32,Yes,The meaning of some of these statements would depend highly on the context of the situation and the things said before and after them.,Female,English,NA,9
679,default,block1,hat,ai,0.02,3682,MC,14,MC,MC,NA,default,32,Yes,The meaning of some of these statements would depend highly on the context of the situation and the things said before and after them.,Female,English,NA,10
679,default,block1,garage,ai,0,5483,MC,15,MC,MC,NA,default,32,Yes,The meaning of some of these statements would depend highly on the context of the situation and the things said before and after them.,Female,English,NA,11
679,default,block1,josie,ai,0.98,6636,admit,16,admit,C,NA,default,32,Yes,The meaning of some of these statements would depend highly on the context of the situation and the things said before and after them.,Female,English,NA,12
679,default,block1,kids,ai,0,27915,MC,17,MC,MC,NA,default,32,Yes,The meaning of some of these statements would depend highly on the context of the situation and the things said before and after them.,Female,English,NA,13
679,default,block1,josh,ai,0.96,7495,demonstrate,18,demonstrate,C,NA,default,32,Yes,The meaning of some of these statements would depend highly on the context of the situation and the things said before and after them.,Female,English,NA,14
679,default,block1,tony,ai,0.96,11535,confirm,19,confirm,C,NA,default,32,Yes,The meaning of some of these statements would depend highly on the context of the situation and the things said before and after them.,Female,English,NA,15
679,default,block1,julian,ai,0.97,8833,confess,20,confess,C,NA,default,32,Yes,The meaning of some of these statements would depend highly on the context of the situation and the things said before and after them.,Female,English,NA,16
679,default,block1,mary,ai,0.96,4965,pretend,21,pretend,C,NA,default,32,Yes,The meaning of some of these statements would depend highly on the context of the situation and the things said before and after them.,Female,English,NA,17
679,default,block1,isabella,ai,0.89,94437,inform,22,inform,C,NA,default,32,Yes,The meaning of some of these statements would depend highly on the context of the situation and the things said before and after them.,Female,English,NA,18
679,default,block1,grace,ai,0.82,15968,prove,23,prove,C,NA,default,32,Yes,The meaning of some of these statements would depend highly on the context of the situation and the things said before and after them.,Female,English,NA,19
679,default,block1,jayden,ai,1,49363,be_annoyed,24,be_annoyed,C,NA,default,32,Yes,The meaning of some of these statements would depend highly on the context of the situation and the things said before and after them.,Female,English,NA,20
679,default,block1,frank,ai,1,6936,say,25,say,C,NA,default,32,Yes,The meaning of some of these statements would depend highly on the context of the situation and the things said before and after them.,Female,English,NA,21
679,default,block1,jackson,ai,0.91,19131,see,26,see,C,NA,default,32,Yes,The meaning of some of these statements would depend highly on the context of the situation and the things said before and after them.,Female,English,NA,22
679,default,block1,mia,ai,0.7,62129,discover,27,discover,C,NA,default,32,Yes,The meaning of some of these statements would depend highly on the context of the situation and the things said before and after them.,Female,English,NA,23
679,default,block1,pizza,ai,0,16824,MC,28,MC,MC,NA,default,32,Yes,The meaning of some of these statements would depend highly on the context of the situation and the things said before and after them.,Female,English,NA,24
679,default,block1,muffins,ai,0,10677,MC,29,MC,MC,NA,default,32,Yes,The meaning of some of these statements would depend highly on the context of the situation and the things said before and after them.,Female,English,NA,25
679,default,block1,emma,ai,0.98,7040,announce,30,announce,C,NA,default,32,Yes,The meaning of some of these statements would depend highly on the context of the situation and the things said before and after them.,Female,English,NA,26
679,default,block2,grace,projective,0.44,16305,prove,32,prove,C,NA,default,32,Yes,The meaning of some of these statements would depend highly on the context of the situation and the things said before and after them.,Female,English,NA,27
679,default,block2,hat,projective,0.94,30657,MC,33,MC,MC,NA,default,32,Yes,The meaning of some of these statements would depend highly on the context of the situation and the things said before and after them.,Female,English,NA,28
679,default,block2,sophia,projective,0.78,43611,reveal,34,reveal,C,NA,default,32,Yes,The meaning of some of these statements would depend highly on the context of the situation and the things said before and after them.,Female,English,NA,29
679,default,block2,isabella,projective,0.57,37455,inform,35,inform,C,NA,default,32,Yes,The meaning of some of these statements would depend highly on the context of the situation and the things said before and after them.,Female,English,NA,30
679,default,block2,garage,projective,1,39872,MC,36,MC,MC,NA,default,32,Yes,The meaning of some of these statements would depend highly on the context of the situation and the things said before and after them.,Female,English,NA,31
679,default,block2,owen,projective,0.56,10158,establish,37,establish,C,NA,default,32,Yes,The meaning of some of these statements would depend highly on the context of the situation and the things said before and after them.,Female,English,NA,32
679,default,block2,emily,projective,0.49,40736,hear,38,hear,C,NA,default,32,Yes,The meaning of some of these statements would depend highly on the context of the situation and the things said before and after them.,Female,English,NA,33
679,default,block2,mary,projective,0.13,10306,pretend,39,pretend,C,NA,default,32,Yes,The meaning of some of these statements would depend highly on the context of the situation and the things said before and after them.,Female,English,NA,34
679,default,block2,charley,projective,0.21,177868,suggest,40,suggest,C,NA,default,32,Yes,The meaning of some of these statements would depend highly on the context of the situation and the things said before and after them.,Female,English,NA,35
679,default,block2,pizza,projective,1,16132,MC,41,MC,MC,NA,default,32,Yes,The meaning of some of these statements would depend highly on the context of the situation and the things said before and after them.,Female,English,NA,36
679,default,block2,jon,projective,0.6,9402,know,42,know,C,NA,default,32,Yes,The meaning of some of these statements would depend highly on the context of the situation and the things said before and after them.,Female,English,NA,37
679,default,block2,zoe,projective,0.88,11358,acknowledge,43,acknowledge,C,NA,default,32,Yes,The meaning of some of these statements would depend highly on the context of the situation and the things said before and after them.,Female,English,NA,38
679,default,block2,muffins,projective,1,5490,MC,44,MC,MC,NA,default,32,Yes,The meaning of some of these statements would depend highly on the context of the situation and the things said before and after them.,Female,English,NA,39
679,default,block2,olivia,projective,0.61,30832,be_right,45,be_right,C,NA,default,32,Yes,The meaning of some of these statements would depend highly on the context of the situation and the things said before and after them.,Female,English,NA,40
679,default,block2,jackson,projective,0.68,74945,see,46,see,C,NA,default,32,Yes,The meaning of some of these statements would depend highly on the context of the situation and the things said before and after them.,Female,English,NA,41
679,default,block2,josh,projective,0.38,315068,demonstrate,47,demonstrate,C,NA,default,32,Yes,The meaning of some of these statements would depend highly on the context of the situation and the things said before and after them.,Female,English,NA,42
679,default,block2,ballet,projective,1,3492,MC,48,MC,MC,NA,default,32,Yes,The meaning of some of these statements would depend highly on the context of the situation and the things said before and after them.,Female,English,NA,43
679,default,block2,frank,projective,0.2,8545,say,49,say,C,NA,default,32,Yes,The meaning of some of these statements would depend highly on the context of the situation and the things said before and after them.,Female,English,NA,44
679,default,block2,josie,projective,0.6,48319,admit,50,admit,C,NA,default,32,Yes,The meaning of some of these statements would depend highly on the context of the situation and the things said before and after them.,Female,English,NA,45
679,default,block2,julian,projective,0.67,8738,confess,51,confess,C,NA,default,32,Yes,The meaning of some of these statements would depend highly on the context of the situation and the things said before and after them.,Female,English,NA,46
679,default,block2,kids,projective,1,5653,MC,52,MC,MC,NA,default,32,Yes,The meaning of some of these statements would depend highly on the context of the situation and the things said before and after them.,Female,English,NA,47
679,default,block2,mia,projective,0.85,6281,discover,53,discover,C,NA,default,32,Yes,The meaning of some of these statements would depend highly on the context of the situation and the things said before and after them.,Female,English,NA,48
679,default,block2,danny,projective,0.16,6524,think,54,think,C,NA,default,32,Yes,The meaning of some of these statements would depend highly on the context of the situation and the things said before and after them.,Female,English,NA,49
679,default,block2,jayden,projective,0.91,5742,be_annoyed,55,be_annoyed,C,NA,default,32,Yes,The meaning of some of these statements would depend highly on the context of the situation and the things said before and after them.,Female,English,NA,50
679,default,block2,emma,projective,0.62,11000,announce,56,announce,C,NA,default,32,Yes,The meaning of some of these statements would depend highly on the context of the situation and the things said before and after them.,Female,English,NA,51
679,default,block2,tony,projective,0.37,14658,confirm,57,confirm,C,NA,default,32,Yes,The meaning of some of these statements would depend highly on the context of the situation and the things said before and after them.,Female,English,NA,52
626,default,block1,josh,projective,0.51,23871,be_right,5,be_right,C,NA,default,42,Yes,None. Thank you.,Female,english,NA,1
626,default,block1,sophia,projective,0.98,11512,acknowledge,6,acknowledge,C,NA,default,42,Yes,None. Thank you.,Female,english,NA,2
626,default,block1,julian,projective,0.02,11604,pretend,7,pretend,C,NA,default,42,Yes,None. Thank you.,Female,english,NA,3
626,default,block1,ballet,projective,0.98,4738,MC,8,MC,MC,NA,default,42,Yes,None. Thank you.,Female,english,NA,4
626,default,block1,danny,projective,0.11,7826,confirm,9,confirm,C,NA,default,42,Yes,None. Thank you.,Female,english,NA,5
626,default,block1,jon,projective,0.14,6118,announce,10,announce,C,NA,default,42,Yes,None. Thank you.,Female,english,NA,6
626,default,block1,charley,projective,1,9789,know,11,know,C,NA,default,42,Yes,None. Thank you.,Female,english,NA,7
626,default,block1,jayden,projective,0.83,8440,hear,12,hear,C,NA,default,42,Yes,None. Thank you.,Female,english,NA,8
626,default,block1,owen,projective,0.14,7015,suggest,13,suggest,C,NA,default,42,Yes,None. Thank you.,Female,english,NA,9
626,default,block1,emily,projective,0.14,7284,think,14,think,C,NA,default,42,Yes,None. Thank you.,Female,english,NA,10
626,default,block1,jackson,projective,0.92,7258,reveal,15,reveal,C,NA,default,42,Yes,None. Thank you.,Female,english,NA,11
626,default,block1,olivia,projective,0.97,6754,discover,16,discover,C,NA,default,42,Yes,None. Thank you.,Female,english,NA,12
626,default,block1,emma,projective,0.13,12760,confess,17,confess,C,NA,default,42,Yes,None. Thank you.,Female,english,NA,13
626,default,block1,muffins,projective,0.99,6938,MC,18,MC,MC,NA,default,42,Yes,None. Thank you.,Female,english,NA,14
626,default,block1,garage,projective,0.98,4651,MC,19,MC,MC,NA,default,42,Yes,None. Thank you.,Female,english,NA,15
626,default,block1,grace,projective,0.98,9301,be_annoyed,20,be_annoyed,C,NA,default,42,Yes,None. Thank you.,Female,english,NA,16
626,default,block1,mary,projective,0,7161,say,21,say,C,NA,default,42,Yes,None. Thank you.,Female,english,NA,17
626,default,block1,josie,projective,0.02,9490,demonstrate,22,demonstrate,C,NA,default,42,Yes,None. Thank you.,Female,english,NA,18
626,default,block1,isabella,projective,0.01,7493,prove,23,prove,C,NA,default,42,Yes,None. Thank you.,Female,english,NA,19
626,default,block1,zoe,projective,0.03,6067,establish,24,establish,C,NA,default,42,Yes,None. Thank you.,Female,english,NA,20
626,default,block1,frank,projective,0.99,5459,see,25,see,C,NA,default,42,Yes,None. Thank you.,Female,english,NA,21
626,default,block1,tony,projective,0.52,7438,admit,26,admit,C,NA,default,42,Yes,None. Thank you.,Female,english,NA,22
626,default,block1,kids,projective,0.98,4522,MC,27,MC,MC,NA,default,42,Yes,None. Thank you.,Female,english,NA,23
626,default,block1,pizza,projective,0.98,5971,MC,28,MC,MC,NA,default,42,Yes,None. Thank you.,Female,english,NA,24
626,default,block1,mia,projective,0.98,6747,inform,29,inform,C,NA,default,42,Yes,None. Thank you.,Female,english,NA,25
626,default,block1,hat,projective,0.97,3984,MC,30,MC,MC,NA,default,42,Yes,None. Thank you.,Female,english,NA,26
626,default,block2,hat,ai,0.02,9295,MC,32,MC,MC,NA,default,42,Yes,None. Thank you.,Female,english,NA,27
626,default,block2,julian,ai,0.97,6352,pretend,33,pretend,C,NA,default,42,Yes,None. Thank you.,Female,english,NA,28
626,default,block2,frank,ai,1,7800,see,34,see,C,NA,default,42,Yes,None. Thank you.,Female,english,NA,29
626,default,block2,zoe,ai,0.96,11776,establish,35,establish,C,NA,default,42,Yes,None. Thank you.,Female,english,NA,30
626,default,block2,josh,ai,0.01,6311,be_right,36,be_right,C,NA,default,42,Yes,None. Thank you.,Female,english,NA,31
626,default,block2,josie,ai,0.97,7147,demonstrate,37,demonstrate,C,NA,default,42,Yes,None. Thank you.,Female,english,NA,32
626,default,block2,kids,ai,0.02,5417,MC,38,MC,MC,NA,default,42,Yes,None. Thank you.,Female,english,NA,33
626,default,block2,muffins,ai,0.02,5558,MC,39,MC,MC,NA,default,42,Yes,None. Thank you.,Female,english,NA,34
626,default,block2,mary,ai,0.99,6666,say,40,say,C,NA,default,42,Yes,None. Thank you.,Female,english,NA,35
626,default,block2,emily,ai,1,6420,think,41,think,C,NA,default,42,Yes,None. Thank you.,Female,english,NA,36
626,default,block2,charley,ai,0.97,5620,know,42,know,C,NA,default,42,Yes,None. Thank you.,Female,english,NA,37
626,default,block2,jayden,ai,1,6441,hear,43,hear,C,NA,default,42,Yes,None. Thank you.,Female,english,NA,38
626,default,block2,owen,ai,0.98,5881,suggest,44,suggest,C,NA,default,42,Yes,None. Thank you.,Female,english,NA,39
626,default,block2,garage,ai,0.01,4185,MC,45,MC,MC,NA,default,42,Yes,None. Thank you.,Female,english,NA,40
626,default,block2,mia,ai,0.99,9863,inform,46,inform,C,NA,default,42,Yes,None. Thank you.,Female,english,NA,41
626,default,block2,emma,ai,0.99,5687,confess,47,confess,C,NA,default,42,Yes,None. Thank you.,Female,english,NA,42
626,default,block2,olivia,ai,0.99,5164,discover,48,discover,C,NA,default,42,Yes,None. Thank you.,Female,english,NA,43
626,default,block2,danny,ai,0.98,5080,confirm,49,confirm,C,NA,default,42,Yes,None. Thank you.,Female,english,NA,44
626,default,block2,grace,ai,1,7032,be_annoyed,50,be_annoyed,C,NA,default,42,Yes,None. Thank you.,Female,english,NA,45
626,default,block2,sophia,ai,0.99,11929,acknowledge,51,acknowledge,C,NA,default,42,Yes,None. Thank you.,Female,english,NA,46
626,default,block2,isabella,ai,0.98,4763,prove,52,prove,C,NA,default,42,Yes,None. Thank you.,Female,english,NA,47
626,default,block2,ballet,ai,0.03,3942,MC,53,MC,MC,NA,default,42,Yes,None. Thank you.,Female,english,NA,48
626,default,block2,tony,ai,0.99,6158,admit,54,admit,C,NA,default,42,Yes,None. Thank you.,Female,english,NA,49
626,default,block2,jon,ai,0.97,4878,announce,55,announce,C,NA,default,42,Yes,None. Thank you.,Female,english,NA,50
626,default,block2,pizza,ai,0.02,3589,MC,56,MC,MC,NA,default,42,Yes,None. Thank you.,Female,english,NA,51
626,default,block2,jackson,ai,0.99,4451,reveal,57,reveal,C,NA,default,42,Yes,None. Thank you.,Female,english,NA,52
554,default,block1,garage,projective,1,2132,MC,5,MC,MC,NA,default,24,Yes,NA,Male,English,NA,1
554,default,block1,tony,projective,1,3366,confess,6,confess,C,NA,default,24,Yes,NA,Male,English,NA,2
554,default,block1,zoe,projective,0.6,3395,inform,7,inform,C,NA,default,24,Yes,NA,Male,English,NA,3
554,default,block1,olivia,projective,0.49,3275,say,8,say,C,NA,default,24,Yes,NA,Male,English,NA,4
554,default,block1,sophia,projective,0,1763,confirm,9,confirm,C,NA,default,24,Yes,NA,Male,English,NA,5
554,default,block1,josie,projective,0.24,63280,hear,10,hear,C,NA,default,24,Yes,NA,Male,English,NA,6
554,default,block1,emma,projective,0.81,2120,admit,11,admit,C,NA,default,24,Yes,NA,Male,English,NA,7
554,default,block1,pizza,projective,1,2509,MC,12,MC,MC,NA,default,24,Yes,NA,Male,English,NA,8
554,default,block1,owen,projective,0.45,1294,know,13,know,C,NA,default,24,Yes,NA,Male,English,NA,9
554,default,block1,muffins,projective,1,1622,MC,14,MC,MC,NA,default,24,Yes,NA,Male,English,NA,10
554,default,block1,emily,projective,0.24,2521,reveal,15,reveal,C,NA,default,24,Yes,NA,Male,English,NA,11
554,default,block1,ballet,projective,1,1593,MC,16,MC,MC,NA,default,24,Yes,NA,Male,English,NA,12
554,default,block1,danny,projective,0.52,1266,prove,17,prove,C,NA,default,24,Yes,NA,Male,English,NA,13
554,default,block1,isabella,projective,0.67,1176,discover,18,discover,C,NA,default,24,Yes,NA,Male,English,NA,14
554,default,block1,josh,projective,0.18,1621,be_annoyed,19,be_annoyed,C,NA,default,24,Yes,NA,Male,English,NA,15
554,default,block1,mary,projective,0.61,1606,acknowledge,20,acknowledge,C,NA,default,24,Yes,NA,Male,English,NA,16
554,default,block1,mia,projective,0.72,1319,demonstrate,21,demonstrate,C,NA,default,24,Yes,NA,Male,English,NA,17
554,default,block1,charley,projective,0.25,2034,suggest,22,suggest,C,NA,default,24,Yes,NA,Male,English,NA,18
554,default,block1,jon,projective,0.68,1438,pretend,23,pretend,C,NA,default,24,Yes,NA,Male,English,NA,19
554,default,block1,jackson,projective,0.74,1350,see,24,see,C,NA,default,24,Yes,NA,Male,English,NA,20
554,default,block1,hat,projective,1,1639,MC,25,MC,MC,NA,default,24,Yes,NA,Male,English,NA,21
554,default,block1,jayden,projective,0.24,1799,announce,26,announce,C,NA,default,24,Yes,NA,Male,English,NA,22
554,default,block1,kids,projective,1,2795,MC,27,MC,MC,NA,default,24,Yes,NA,Male,English,NA,23
554,default,block1,frank,projective,0.28,2535,be_right,28,be_right,C,NA,default,24,Yes,NA,Male,English,NA,24
554,default,block1,grace,projective,0.13,1908,establish,29,establish,C,NA,default,24,Yes,NA,Male,English,NA,25
554,default,block1,julian,projective,0.29,28792,think,30,think,C,NA,default,24,Yes,NA,Male,English,NA,26
554,default,block2,muffins,ai,0,2060,MC,32,MC,MC,NA,default,24,Yes,NA,Male,English,NA,27
554,default,block2,owen,ai,0.74,1860,know,33,know,C,NA,default,24,Yes,NA,Male,English,NA,28
554,default,block2,emma,ai,0.29,2116,admit,34,admit,C,NA,default,24,Yes,NA,Male,English,NA,29
554,default,block2,isabella,ai,0.69,1615,discover,35,discover,C,NA,default,24,Yes,NA,Male,English,NA,30
554,default,block2,zoe,ai,0.78,1688,inform,36,inform,C,NA,default,24,Yes,NA,Male,English,NA,31
554,default,block2,josh,ai,0.39,1074,be_annoyed,37,be_annoyed,C,NA,default,24,Yes,NA,Male,English,NA,32
554,default,block2,pizza,ai,0,1712,MC,38,MC,MC,NA,default,24,Yes,NA,Male,English,NA,33
554,default,block2,garage,ai,0,2484,MC,39,MC,MC,NA,default,24,Yes,NA,Male,English,NA,34
554,default,block2,grace,ai,0.75,1913,establish,40,establish,C,NA,default,24,Yes,NA,Male,English,NA,35
554,default,block2,jackson,ai,0.37,1515,see,41,see,C,NA,default,24,Yes,NA,Male,English,NA,36
554,default,block2,josie,ai,0.89,33145,hear,42,hear,C,NA,default,24,Yes,NA,Male,English,NA,37
554,default,block2,emily,ai,0.65,1047,reveal,43,reveal,C,NA,default,24,Yes,NA,Male,English,NA,38
554,default,block2,kids,ai,0,1806,MC,44,MC,MC,NA,default,24,Yes,NA,Male,English,NA,39
554,default,block2,frank,ai,0.68,1800,be_right,45,be_right,C,NA,default,24,Yes,NA,Male,English,NA,40
554,default,block2,ballet,ai,0,1705,MC,46,MC,MC,NA,default,24,Yes,NA,Male,English,NA,41
554,default,block2,mary,ai,0.7,1926,acknowledge,47,acknowledge,C,NA,default,24,Yes,NA,Male,English,NA,42
554,default,block2,sophia,ai,0.44,1539,confirm,48,confirm,C,NA,default,24,Yes,NA,Male,English,NA,43
554,default,block2,hat,ai,0,2253,MC,49,MC,MC,NA,default,24,Yes,NA,Male,English,NA,44
554,default,block2,danny,ai,0.73,1943,prove,50,prove,C,NA,default,24,Yes,NA,Male,English,NA,45
554,default,block2,olivia,ai,0.29,2149,say,51,say,C,NA,default,24,Yes,NA,Male,English,NA,46
554,default,block2,tony,ai,0.75,2119,confess,52,confess,C,NA,default,24,Yes,NA,Male,English,NA,47
554,default,block2,charley,ai,0.81,2446,suggest,53,suggest,C,NA,default,24,Yes,NA,Male,English,NA,48
554,default,block2,julian,ai,0.41,1440,think,54,think,C,NA,default,24,Yes,NA,Male,English,NA,49
554,default,block2,jayden,ai,0.63,1145,announce,55,announce,C,NA,default,24,Yes,NA,Male,English,NA,50
554,default,block2,mia,ai,0.36,1159,demonstrate,56,demonstrate,C,NA,default,24,Yes,NA,Male,English,NA,51
554,default,block2,jon,ai,0.72,1557,pretend,57,pretend,C,NA,default,24,Yes,NA,Male,English,NA,52
441,default,block1,mia,projective,0.74,19382,inform,5,inform,C,NA,default,36,Yes,NA,Male,english,NA,1
441,default,block1,olivia,projective,0.41,9228,suggest,6,suggest,C,NA,default,36,Yes,NA,Male,english,NA,2
441,default,block1,jackson,projective,0.71,5080,discover,7,discover,C,NA,default,36,Yes,NA,Male,english,NA,3
441,default,block1,frank,projective,0.17,6430,be_right,8,be_right,C,NA,default,36,Yes,NA,Male,english,NA,4
441,default,block1,emily,projective,0.18,4832,acknowledge,9,acknowledge,C,NA,default,36,Yes,NA,Male,english,NA,5
441,default,block1,grace,projective,0.4,6164,reveal,10,reveal,C,NA,default,36,Yes,NA,Male,english,NA,6
441,default,block1,hat,projective,0.88,3763,MC,11,MC,MC,NA,default,36,Yes,NA,Male,english,NA,7
441,default,block1,emma,projective,0.59,6375,be_annoyed,12,be_annoyed,C,NA,default,36,Yes,NA,Male,english,NA,8
441,default,block1,garage,projective,0.79,6400,MC,13,MC,MC,NA,default,36,Yes,NA,Male,english,NA,9
441,default,block1,isabella,projective,0.41,5245,hear,14,hear,C,NA,default,36,Yes,NA,Male,english,NA,10
441,default,block1,charley,projective,0.71,5041,confess,15,confess,C,NA,default,36,Yes,NA,Male,english,NA,11
441,default,block1,jon,projective,0.33,5584,establish,16,establish,C,NA,default,36,Yes,NA,Male,english,NA,12
441,default,block1,tony,projective,0.14,6758,think,17,think,C,NA,default,36,Yes,NA,Male,english,NA,13
441,default,block1,sophia,projective,0.66,9100,know,18,know,C,NA,default,36,Yes,NA,Male,english,NA,14
441,default,block1,muffins,projective,0.86,4256,MC,19,MC,MC,NA,default,36,Yes,NA,Male,english,NA,15
441,default,block1,kids,projective,0.86,4006,MC,20,MC,MC,NA,default,36,Yes,NA,Male,english,NA,16
441,default,block1,pizza,projective,0.89,3378,MC,21,MC,MC,NA,default,36,Yes,NA,Male,english,NA,17
441,default,block1,zoe,projective,0.42,5700,admit,22,admit,C,NA,default,36,Yes,NA,Male,english,NA,18
441,default,block1,julian,projective,0.68,3976,announce,23,announce,C,NA,default,36,Yes,NA,Male,english,NA,19
441,default,block1,josh,projective,0.57,8424,confirm,24,confirm,C,NA,default,36,Yes,NA,Male,english,NA,20
441,default,block1,mary,projective,0.17,5559,pretend,25,pretend,C,NA,default,36,Yes,NA,Male,english,NA,21
441,default,block1,josie,projective,0.62,6756,see,26,see,C,NA,default,36,Yes,NA,Male,english,NA,22
441,default,block1,ballet,projective,0.87,3048,MC,27,MC,MC,NA,default,36,Yes,NA,Male,english,NA,23
441,default,block1,danny,projective,0.61,5728,demonstrate,28,demonstrate,C,NA,default,36,Yes,NA,Male,english,NA,24
441,default,block1,jayden,projective,0.58,6865,prove,29,prove,C,NA,default,36,Yes,NA,Male,english,NA,25
441,default,block1,owen,projective,0.33,5376,say,30,say,C,NA,default,36,Yes,NA,Male,english,NA,26
441,default,block2,danny,ai,0.78,16401,demonstrate,32,demonstrate,C,NA,default,36,Yes,NA,Male,english,NA,27
441,default,block2,charley,ai,0.77,9683,confess,33,confess,C,NA,default,36,Yes,NA,Male,english,NA,28
441,default,block2,ballet,ai,0.04,3324,MC,34,MC,MC,NA,default,36,Yes,NA,Male,english,NA,29
441,default,block2,olivia,ai,0.78,44620,suggest,35,suggest,C,NA,default,36,Yes,NA,Male,english,NA,30
441,default,block2,zoe,ai,0.83,3933,admit,36,admit,C,NA,default,36,Yes,NA,Male,english,NA,31
441,default,block2,pizza,ai,0.01,2691,MC,37,MC,MC,NA,default,36,Yes,NA,Male,english,NA,32
441,default,block2,tony,ai,0.82,4447,think,38,think,C,NA,default,36,Yes,NA,Male,english,NA,33
441,default,block2,jon,ai,0.86,2617,establish,39,establish,C,NA,default,36,Yes,NA,Male,english,NA,34
441,default,block2,jayden,ai,0.81,5333,prove,40,prove,C,NA,default,36,Yes,NA,Male,english,NA,35
441,default,block2,sophia,ai,0.76,4508,know,41,know,C,NA,default,36,Yes,NA,Male,english,NA,36
441,default,block2,mia,ai,0.79,3970,inform,42,inform,C,NA,default,36,Yes,NA,Male,english,NA,37
441,default,block2,mary,ai,0.79,4938,pretend,43,pretend,C,NA,default,36,Yes,NA,Male,english,NA,38
441,default,block2,owen,ai,0.8,3575,say,44,say,C,NA,default,36,Yes,NA,Male,english,NA,39
441,default,block2,jackson,ai,0.81,2715,discover,45,discover,C,NA,default,36,Yes,NA,Male,english,NA,40
441,default,block2,frank,ai,0.37,6576,be_right,46,be_right,C,NA,default,36,Yes,NA,Male,english,NA,41
441,default,block2,hat,ai,0.05,2511,MC,47,MC,MC,NA,default,36,Yes,NA,Male,english,NA,42
441,default,block2,josh,ai,0.68,5953,confirm,48,confirm,C,NA,default,36,Yes,NA,Male,english,NA,43
441,default,block2,kids,ai,0.08,2535,MC,49,MC,MC,NA,default,36,Yes,NA,Male,english,NA,44
441,default,block2,garage,ai,0.07,2738,MC,50,MC,MC,NA,default,36,Yes,NA,Male,english,NA,45
441,default,block2,emily,ai,0.81,3896,acknowledge,51,acknowledge,C,NA,default,36,Yes,NA,Male,english,NA,46
441,default,block2,muffins,ai,0.05,2552,MC,52,MC,MC,NA,default,36,Yes,NA,Male,english,NA,47
441,default,block2,josie,ai,0.82,3628,see,53,see,C,NA,default,36,Yes,NA,Male,english,NA,48
441,default,block2,emma,ai,0.81,4626,be_annoyed,54,be_annoyed,C,NA,default,36,Yes,NA,Male,english,NA,49
441,default,block2,julian,ai,0.81,3028,announce,55,announce,C,NA,default,36,Yes,NA,Male,english,NA,50
441,default,block2,isabella,ai,0.81,5250,hear,56,hear,C,NA,default,36,Yes,NA,Male,english,NA,51
441,default,block2,grace,ai,0.83,4434,reveal,57,reveal,C,NA,default,36,Yes,NA,Male,english,NA,52
517,default,block1,owen,projective,0.75,21646,demonstrate,5,demonstrate,C,NA,default,22,Yes,NA,Female,English,NA,1
517,default,block1,emily,projective,1,10371,be_annoyed,6,be_annoyed,C,NA,default,22,Yes,NA,Female,English,NA,2
517,default,block1,hat,projective,1,3663,MC,7,MC,MC,NA,default,22,Yes,NA,Female,English,NA,3
517,default,block1,jackson,projective,0.68,25765,be_right,8,be_right,C,NA,default,22,Yes,NA,Female,English,NA,4
517,default,block1,tony,projective,0.92,9851,announce,9,announce,C,NA,default,22,Yes,NA,Female,English,NA,5
517,default,block1,muffins,projective,1,3421,MC,10,MC,MC,NA,default,22,Yes,NA,Female,English,NA,6
517,default,block1,frank,projective,0.75,7436,prove,11,prove,C,NA,default,22,Yes,NA,Female,English,NA,7
517,default,block1,mary,projective,1,4238,see,12,see,C,NA,default,22,Yes,NA,Female,English,NA,8
517,default,block1,grace,projective,1,44224,discover,13,discover,C,NA,default,22,Yes,NA,Female,English,NA,9
517,default,block1,ballet,projective,1,4540,MC,14,MC,MC,NA,default,22,Yes,NA,Female,English,NA,10
517,default,block1,sophia,projective,1,3824,know,15,know,C,NA,default,22,Yes,NA,Female,English,NA,11
517,default,block1,emma,projective,0.77,6346,confess,16,confess,C,NA,default,22,Yes,NA,Female,English,NA,12
