workerid,proliferate.condition,block,content,question_type,response,rt,short_trigger,slide_number_in_experiment,trigger,trigger_class,catch_trials,subject_information.age,subject_information.american,subject_information.comments,subject_information.gender,subject_information.language,system.Browser,system.OS,system.screenH,system.screenW,time_in_minutes,error
462,default,block1,muffins,ai,0.97,16919,MC,5,MC,MC,[],18,Yes,,Female,English,Chrome,Windows,768,1366,10.23645,
462,default,block1,mary,ai,0.96,8548,be_right,6,be_right,C,[],18,Yes,,Female,English,Chrome,Windows,768,1366,10.23645,
462,default,block1,danny,ai,0.03,26064,inform,7,inform,C,[],18,Yes,,Female,English,Chrome,Windows,768,1366,10.23645,
462,default,block1,grace,ai,0.06,15367,be_annoyed,8,be_annoyed,C,[],18,Yes,,Female,English,Chrome,Windows,768,1366,10.23645,
462,default,block1,owen,ai,0.74,25489,confess,9,confess,C,[],18,Yes,,Female,English,Chrome,Windows,768,1366,10.23645,
462,default,block1,zoe,ai,0.15,10972,demonstrate,10,demonstrate,C,[],18,Yes,,Female,English,Chrome,Windows,768,1366,10.23645,
462,default,block1,isabella,ai,0.19,11530,reveal,11,reveal,C,[],18,Yes,,Female,English,Chrome,Windows,768,1366,10.23645,
462,default,block1,tony,ai,0.15,9952,hear,12,hear,C,[],18,Yes,,Female,English,Chrome,Windows,768,1366,10.23645,
462,default,block1,mia,ai,0.14,12010,announce,13,announce,C,[],18,Yes,,Female,English,Chrome,Windows,768,1366,10.23645,
462,default,block1,jayden,ai,0.19,7120,discover,14,discover,C,[],18,Yes,,Female,English,Chrome,Windows,768,1366,10.23645,
462,default,block1,hat,ai,0.97,9296,MC,15,MC,MC,[],18,Yes,,Female,English,Chrome,Windows,768,1366,10.23645,
462,default,block1,charley,ai,0.07,8318,prove,16,prove,C,[],18,Yes,,Female,English,Chrome,Windows,768,1366,10.23645,
462,default,block1,jon,ai,0.05,8853,establish,17,establish,C,[],18,Yes,,Female,English,Chrome,Windows,768,1366,10.23645,
462,default,block1,garage,ai,0.99,7408,MC,18,MC,MC,[],18,Yes,,Female,English,Chrome,Windows,768,1366,10.23645,
462,default,block1,pizza,ai,0.98,4390,MC,19,MC,MC,[],18,Yes,,Female,English,Chrome,Windows,768,1366,10.23645,
462,default,block1,ballet,ai,0.98,3705,MC,20,MC,MC,[],18,Yes,,Female,English,Chrome,Windows,768,1366,10.23645,
462,default,block1,jackson,ai,0.08,7792,think,21,think,C,[],18,Yes,,Female,English,Chrome,Windows,768,1366,10.23645,
462,default,block1,julian,ai,0.02,6548,suggest,22,suggest,C,[],18,Yes,,Female,English,Chrome,Windows,768,1366,10.23645,
462,default,block1,olivia,ai,0,6802,admit,23,admit,C,[],18,Yes,,Female,English,Chrome,Windows,768,1366,10.23645,
462,default,block1,josie,ai,0.07,17384,see,24,see,C,[],18,Yes,,Female,English,Chrome,Windows,768,1366,10.23645,
462,default,block1,frank,ai,0.37,17653,acknowledge,25,acknowledge,C,[],18,Yes,,Female,English,Chrome,Windows,768,1366,10.23645,
462,default,block1,emma,ai,0.65,11465,pretend,26,pretend,C,[],18,Yes,,Female,English,Chrome,Windows,768,1366,10.23645,
462,default,block1,sophia,ai,0.62,9824,confirm,27,confirm,C,[],18,Yes,,Female,English,Chrome,Windows,768,1366,10.23645,
462,default,block1,kids,ai,0.99,4153,MC,28,MC,MC,[],18,Yes,,Female,English,Chrome,Windows,768,1366,10.23645,
462,default,block1,emily,ai,0.8,11101,know,29,know,C,[],18,Yes,,Female,English,Chrome,Windows,768,1366,10.23645,
462,default,block1,josh,ai,0.68,15874,say,30,say,C,[],18,Yes,,Female,English,Chrome,Windows,768,1366,10.23645,
462,default,block2,tony,projective,0.63,19325,hear,32,hear,C,[],18,Yes,,Female,English,Chrome,Windows,768,1366,10.23645,
462,default,block2,zoe,projective,0.32,11290,demonstrate,33,demonstrate,C,[],18,Yes,,Female,English,Chrome,Windows,768,1366,10.23645,
462,default,block2,danny,projective,0.85,26432,inform,34,inform,C,[],18,Yes,,Female,English,Chrome,Windows,768,1366,10.23645,
462,default,block2,garage,projective,0.99,4335,MC,35,MC,MC,[],18,Yes,,Female,English,Chrome,Windows,768,1366,10.23645,
462,default,block2,jackson,projective,0.11,7557,think,36,think,C,[],18,Yes,,Female,English,Chrome,Windows,768,1366,10.23645,
462,default,block2,jon,projective,0.73,16177,establish,37,establish,C,[],18,Yes,,Female,English,Chrome,Windows,768,1366,10.23645,
462,default,block2,frank,projective,0.76,4809,acknowledge,38,acknowledge,C,[],18,Yes,,Female,English,Chrome,Windows,768,1366,10.23645,
462,default,block2,muffins,projective,0.98,3159,MC,39,MC,MC,[],18,Yes,,Female,English,Chrome,Windows,768,1366,10.23645,
462,default,block2,kids,projective,0.98,3492,MC,40,MC,MC,[],18,Yes,,Female,English,Chrome,Windows,768,1366,10.23645,
462,default,block2,emma,projective,0.15,10726,pretend,41,pretend,C,[],18,Yes,,Female,English,Chrome,Windows,768,1366,10.23645,
462,default,block2,jayden,projective,0.78,6385,discover,42,discover,C,[],18,Yes,,Female,English,Chrome,Windows,768,1366,10.23645,
462,default,block2,sophia,projective,0.79,5965,confirm,43,confirm,C,[],18,Yes,,Female,English,Chrome,Windows,768,1366,10.23645,
462,default,block2,grace,projective,0.99,5562,be_annoyed,44,be_annoyed,C,[],18,Yes,,Female,English,Chrome,Windows,768,1366,10.23645,
462,default,block2,olivia,projective,0.92,8304,admit,45,admit,C,[],18,Yes,,Female,English,Chrome,Windows,768,1366,10.23645,
462,default,block2,owen,projective,0.82,8119,confess,46,confess,C,[],18,Yes,,Female,English,Chrome,Windows,768,1366,10.23645,
462,default,block2,josie,projective,0.98,6929,see,47,see,C,[],18,Yes,,Female,English,Chrome,Windows,768,1366,10.23645,
462,default,block2,josh,projective,0.92,7887,say,48,say,C,[],18,Yes,,Female,English,Chrome,Windows,768,1366,10.23645,
462,default,block2,julian,projective,0.28,5459,suggest,49,suggest,C,[],18,Yes,,Female,English,Chrome,Windows,768,1366,10.23645,
462,default,block2,mia,projective,0.67,9086,announce,50,announce,C,[],18,Yes,,Female,English,Chrome,Windows,768,1366,10.23645,
462,default,block2,pizza,projective,0.98,3303,MC,51,MC,MC,[],18,Yes,,Female,English,Chrome,Windows,768,1366,10.23645,
462,default,block2,mary,projective,0.35,7366,be_right,52,be_right,C,[],18,Yes,,Female,English,Chrome,Windows,768,1366,10.23645,
462,default,block2,hat,projective,0.99,3965,MC,53,MC,MC,[],18,Yes,,Female,English,Chrome,Windows,768,1366,10.23645,
462,default,block2,charley,projective,0.72,10481,prove,54,prove,C,[],18,Yes,,Female,English,Chrome,Windows,768,1366,10.23645,
462,default,block2,isabella,projective,0.89,5914,reveal,55,reveal,C,[],18,Yes,,Female,English,Chrome,Windows,768,1366,10.23645,
462,default,block2,ballet,projective,0.98,2926,MC,56,MC,MC,[],18,Yes,,Female,English,Chrome,Windows,768,1366,10.23645,
462,default,block2,emily,projective,1,8533,know,57,know,C,[],18,Yes,,Female,English,Chrome,Windows,768,1366,10.23645,
505,default,block1,frank,ai,0,37490,be_right,5,be_right,C,[],32,Yes,None. Thank you for asking.,Female,American English,Chrome,Windows,768,1366,9.1215,
505,default,block1,zoe,ai,0,8817,know,6,know,C,[],32,Yes,None. Thank you for asking.,Female,American English,Chrome,Windows,768,1366,9.1215,
505,default,block1,emma,ai,0,9879,discover,7,discover,C,[],32,Yes,None. Thank you for asking.,Female,American English,Chrome,Windows,768,1366,9.1215,
505,default,block1,josh,ai,0,11591,suggest,8,suggest,C,[],32,Yes,None. Thank you for asking.,Female,American English,Chrome,Windows,768,1366,9.1215,
505,default,block1,josie,ai,0.95,11393,establish,9,establish,C,[],32,Yes,None. Thank you for asking.,Female,American English,Chrome,Windows,768,1366,9.1215,
505,default,block1,mia,ai,0,13815,see,10,see,C,[],32,Yes,None. Thank you for asking.,Female,American English,Chrome,Windows,768,1366,9.1215,
505,default,block1,jayden,ai,0.03,8567,confess,11,confess,C,[],32,Yes,None. Thank you for asking.,Female,American English,Chrome,Windows,768,1366,9.1215,
505,default,block1,danny,ai,0,8358,prove,12,prove,C,[],32,Yes,None. Thank you for asking.,Female,American English,Chrome,Windows,768,1366,9.1215,
505,default,block1,jon,ai,0,7569,admit,13,admit,C,[],32,Yes,None. Thank you for asking.,Female,American English,Chrome,Windows,768,1366,9.1215,
505,default,block1,charley,ai,0,4285,think,14,think,C,[],32,Yes,None. Thank you for asking.,Female,American English,Chrome,Windows,768,1366,9.1215,
505,default,block1,muffins,ai,1,6848,MC,15,MC,MC,[],32,Yes,None. Thank you for asking.,Female,American English,Chrome,Windows,768,1366,9.1215,
505,default,block1,julian,ai,0,6558,inform,16,inform,C,[],32,Yes,None. Thank you for asking.,Female,American English,Chrome,Windows,768,1366,9.1215,
505,default,block1,garage,ai,1,23592,MC,17,MC,MC,[],32,Yes,None. Thank you for asking.,Female,American English,Chrome,Windows,768,1366,9.1215,
505,default,block1,sophia,ai,0,6631,hear,18,hear,C,[],32,Yes,None. Thank you for asking.,Female,American English,Chrome,Windows,768,1366,9.1215,
505,default,block1,hat,ai,1,17605,MC,19,MC,MC,[],32,Yes,None. Thank you for asking.,Female,American English,Chrome,Windows,768,1366,9.1215,
505,default,block1,pizza,ai,1,4595,MC,20,MC,MC,[],32,Yes,None. Thank you for asking.,Female,American English,Chrome,Windows,768,1366,9.1215,
505,default,block1,owen,ai,0,5445,demonstrate,21,demonstrate,C,[],32,Yes,None. Thank you for asking.,Female,American English,Chrome,Windows,768,1366,9.1215,
505,default,block1,olivia,ai,0,4462,confirm,22,confirm,C,[],32,Yes,None. Thank you for asking.,Female,American English,Chrome,Windows,768,1366,9.1215,
505,default,block1,mary,ai,0,14199,be_annoyed,23,be_annoyed,C,[],32,Yes,None. Thank you for asking.,Female,American English,Chrome,Windows,768,1366,9.1215,
505,default,block1,isabella,ai,0,4143,say,24,say,C,[],32,Yes,None. Thank you for asking.,Female,American English,Chrome,Windows,768,1366,9.1215,
505,default,block1,emily,ai,0,22248,announce,25,announce,C,[],32,Yes,None. Thank you for asking.,Female,American English,Chrome,Windows,768,1366,9.1215,
505,default,block1,jackson,ai,0,4632,pretend,26,pretend,C,[],32,Yes,None. Thank you for asking.,Female,American English,Chrome,Windows,768,1366,9.1215,
505,default,block1,ballet,ai,1,4799,MC,27,MC,MC,[],32,Yes,None. Thank you for asking.,Female,American English,Chrome,Windows,768,1366,9.1215,
505,default,block1,tony,ai,0,3846,reveal,28,reveal,C,[],32,Yes,None. Thank you for asking.,Female,American English,Chrome,Windows,768,1366,9.1215,
505,default,block1,kids,ai,1,39952,MC,29,MC,MC,[],32,Yes,None. Thank you for asking.,Female,American English,Chrome,Windows,768,1366,9.1215,
505,default,block1,grace,ai,0.04,4503,acknowledge,30,acknowledge,C,[],32,Yes,None. Thank you for asking.,Female,American English,Chrome,Windows,768,1366,9.1215,
505,default,block2,grace,projective,0.94,7209,acknowledge,32,acknowledge,C,[],32,Yes,None. Thank you for asking.,Female,American English,Chrome,Windows,768,1366,9.1215,
505,default,block2,zoe,projective,0.09,5959,know,33,know,C,[],32,Yes,None. Thank you for asking.,Female,American English,Chrome,Windows,768,1366,9.1215,
505,default,block2,sophia,projective,0.05,5273,hear,34,hear,C,[],32,Yes,None. Thank you for asking.,Female,American English,Chrome,Windows,768,1366,9.1215,
505,default,block2,owen,projective,0,8728,demonstrate,35,demonstrate,C,[],32,Yes,None. Thank you for asking.,Female,American English,Chrome,Windows,768,1366,9.1215,
505,default,block2,charley,projective,0.04,6878,think,36,think,C,[],32,Yes,None. Thank you for asking.,Female,American English,Chrome,Windows,768,1366,9.1215,
505,default,block2,josie,projective,0.01,5089,establish,37,establish,C,[],32,Yes,None. Thank you for asking.,Female,American English,Chrome,Windows,768,1366,9.1215,
505,default,block2,emma,projective,0.04,5334,discover,38,discover,C,[],32,Yes,None. Thank you for asking.,Female,American English,Chrome,Windows,768,1366,9.1215,
505,default,block2,kids,projective,0.96,4369,MC,39,MC,MC,[],32,Yes,None. Thank you for asking.,Female,American English,Chrome,Windows,768,1366,9.1215,
505,default,block2,pizza,projective,0.98,40447,MC,40,MC,MC,[],32,Yes,None. Thank you for asking.,Female,American English,Chrome,Windows,768,1366,9.1215,
505,default,block2,muffins,projective,0.99,3439,MC,41,MC,MC,[],32,Yes,None. Thank you for asking.,Female,American English,Chrome,Windows,768,1366,9.1215,
505,default,block2,isabella,projective,0.02,4641,say,42,say,C,[],32,Yes,None. Thank you for asking.,Female,American English,Chrome,Windows,768,1366,9.1215,
505,default,block2,hat,projective,0.97,4553,MC,43,MC,MC,[],32,Yes,None. Thank you for asking.,Female,American English,Chrome,Windows,768,1366,9.1215,
505,default,block2,ballet,projective,0.99,3855,MC,44,MC,MC,[],32,Yes,None. Thank you for asking.,Female,American English,Chrome,Windows,768,1366,9.1215,
505,default,block2,josh,projective,0.02,4385,suggest,45,suggest,C,[],32,Yes,None. Thank you for asking.,Female,American English,Chrome,Windows,768,1366,9.1215,
505,default,block2,garage,projective,0.97,7375,MC,46,MC,MC,[],32,Yes,None. Thank you for asking.,Female,American English,Chrome,Windows,768,1366,9.1215,
505,default,block2,mia,projective,0.08,2599,see,47,see,C,[],32,Yes,None. Thank you for asking.,Female,American English,Chrome,Windows,768,1366,9.1215,
505,default,block2,olivia,projective,0.05,3072,confirm,48,confirm,C,[],32,Yes,None. Thank you for asking.,Female,American English,Chrome,Windows,768,1366,9.1215,
505,default,block2,danny,projective,0.07,4280,prove,49,prove,C,[],32,Yes,None. Thank you for asking.,Female,American English,Chrome,Windows,768,1366,9.1215,
505,default,block2,jayden,projective,0.01,2703,confess,50,confess,C,[],32,Yes,None. Thank you for asking.,Female,American English,Chrome,Windows,768,1366,9.1215,
505,default,block2,jackson,projective,0.04,16439,pretend,51,pretend,C,[],32,Yes,None. Thank you for asking.,Female,American English,Chrome,Windows,768,1366,9.1215,
505,default,block2,tony,projective,0.06,2112,reveal,52,reveal,C,[],32,Yes,None. Thank you for asking.,Female,American English,Chrome,Windows,768,1366,9.1215,
505,default,block2,jon,projective,0,3208,admit,53,admit,C,[],32,Yes,None. Thank you for asking.,Female,American English,Chrome,Windows,768,1366,9.1215,
505,default,block2,emily,projective,0.01,2497,announce,54,announce,C,[],32,Yes,None. Thank you for asking.,Female,American English,Chrome,Windows,768,1366,9.1215,
505,default,block2,frank,projective,0.01,3952,be_right,55,be_right,C,[],32,Yes,None. Thank you for asking.,Female,American English,Chrome,Windows,768,1366,9.1215,
505,default,block2,julian,projective,0.01,4239,inform,56,inform,C,[],32,Yes,None. Thank you for asking.,Female,American English,Chrome,Windows,768,1366,9.1215,
505,default,block2,mary,projective,0.02,2216,be_annoyed,57,be_annoyed,C,[],32,Yes,None. Thank you for asking.,Female,American English,Chrome,Windows,768,1366,9.1215,
546,default,block1,garage,projective,1,5526,MC,5,MC,MC,[],74,Yes,,Male,english,Chrome,Windows,768,1366,4.292533333333333,
546,default,block1,muffins,projective,1,3704,MC,6,MC,MC,[],74,Yes,,Male,english,Chrome,Windows,768,1366,4.292533333333333,
546,default,block1,jon,projective,0.75,7720,establish,7,establish,C,[],74,Yes,,Male,english,Chrome,Windows,768,1366,4.292533333333333,
546,default,block1,mia,projective,1,8615,know,8,know,C,[],74,Yes,,Male,english,Chrome,Windows,768,1366,4.292533333333333,
546,default,block1,zoe,projective,0.51,5055,confirm,9,confirm,C,[],74,Yes,,Male,english,Chrome,Windows,768,1366,4.292533333333333,
546,default,block1,sophia,projective,0.81,5112,see,10,see,C,[],74,Yes,,Male,english,Chrome,Windows,768,1366,4.292533333333333,
546,default,block1,pizza,projective,1,3264,MC,11,MC,MC,[],74,Yes,,Male,english,Chrome,Windows,768,1366,4.292533333333333,
546,default,block1,emily,projective,0,7544,say,12,say,C,[],74,Yes,,Male,english,Chrome,Windows,768,1366,4.292533333333333,
546,default,block1,josh,projective,0,4560,hear,13,hear,C,[],74,Yes,,Male,english,Chrome,Windows,768,1366,4.292533333333333,
546,default,block1,charley,projective,0,4232,inform,14,inform,C,[],74,Yes,,Male,english,Chrome,Windows,768,1366,4.292533333333333,
546,default,block1,tony,projective,0,4096,admit,15,admit,C,[],74,Yes,,Male,english,Chrome,Windows,768,1366,4.292533333333333,
546,default,block1,kids,projective,1,3056,MC,16,MC,MC,[],74,Yes,,Male,english,Chrome,Windows,768,1366,4.292533333333333,
546,default,block1,grace,projective,0,3488,think,17,think,C,[],74,Yes,,Male,english,Chrome,Windows,768,1366,4.292533333333333,
546,default,block1,ballet,projective,1,2384,MC,18,MC,MC,[],74,Yes,,Male,english,Chrome,Windows,768,1366,4.292533333333333,
546,default,block1,hat,projective,1,2383,MC,19,MC,MC,[],74,Yes,,Male,english,Chrome,Windows,768,1366,4.292533333333333,
546,default,block1,josie,projective,0,3120,confess,20,confess,C,[],74,Yes,,Male,english,Chrome,Windows,768,1366,4.292533333333333,
546,default,block1,danny,projective,0,3736,pretend,21,pretend,C,[],74,Yes,,Male,english,Chrome,Windows,768,1366,4.292533333333333,
546,default,block1,mary,projective,0,3416,prove,22,prove,C,[],74,Yes,,Male,english,Chrome,Windows,768,1366,4.292533333333333,
546,default,block1,olivia,projective,0.82,4152,reveal,23,reveal,C,[],74,Yes,,Male,english,Chrome,Windows,768,1366,4.292533333333333,
546,default,block1,emma,projective,0.26,3504,be_right,24,be_right,C,[],74,Yes,,Male,english,Chrome,Windows,768,1366,4.292533333333333,
546,default,block1,julian,projective,0,4679,announce,25,announce,C,[],74,Yes,,Male,english,Chrome,Windows,768,1366,4.292533333333333,
546,default,block1,frank,projective,0.97,7000,be_annoyed,26,be_annoyed,C,[],74,Yes,,Male,english,Chrome,Windows,768,1366,4.292533333333333,
546,default,block1,jayden,projective,1,3032,discover,27,discover,C,[],74,Yes,,Male,english,Chrome,Windows,768,1366,4.292533333333333,
546,default,block1,jackson,projective,1,4768,demonstrate,28,demonstrate,C,[],74,Yes,,Male,english,Chrome,Windows,768,1366,4.292533333333333,
546,default,block1,owen,projective,1,3776,acknowledge,29,acknowledge,C,[],74,Yes,,Male,english,Chrome,Windows,768,1366,4.292533333333333,
546,default,block1,isabella,projective,0.19,3048,suggest,30,suggest,C,[],74,Yes,,Male,english,Chrome,Windows,768,1366,4.292533333333333,
546,default,block2,mia,ai,0,9287,know,32,know,C,[],74,Yes,,Male,english,Chrome,Windows,768,1366,4.292533333333333,
546,default,block2,josh,ai,0,5920,hear,33,hear,C,[],74,Yes,,Male,english,Chrome,Windows,768,1366,4.292533333333333,
546,default,block2,olivia,ai,0,4464,reveal,34,reveal,C,[],74,Yes,,Male,english,Chrome,Windows,768,1366,4.292533333333333,
546,default,block2,emily,ai,0,3504,say,35,say,C,[],74,Yes,,Male,english,Chrome,Windows,768,1366,4.292533333333333,
546,default,block2,sophia,ai,0,3600,see,36,see,C,[],74,Yes,,Male,english,Chrome,Windows,768,1366,4.292533333333333,
546,default,block2,charley,ai,0,3464,inform,37,inform,C,[],74,Yes,,Male,english,Chrome,Windows,768,1366,4.292533333333333,
546,default,block2,jayden,ai,0,2792,discover,38,discover,C,[],74,Yes,,Male,english,Chrome,Windows,768,1366,4.292533333333333,
546,default,block2,owen,ai,0,5375,acknowledge,39,acknowledge,C,[],74,Yes,,Male,english,Chrome,Windows,768,1366,4.292533333333333,
546,default,block2,frank,ai,0,3400,be_annoyed,40,be_annoyed,C,[],74,Yes,,Male,english,Chrome,Windows,768,1366,4.292533333333333,
546,default,block2,garage,ai,1,4536,MC,41,MC,MC,[],74,Yes,,Male,english,Chrome,Windows,768,1366,4.292533333333333,
546,default,block2,julian,ai,0,3975,announce,42,announce,C,[],74,Yes,,Male,english,Chrome,Windows,768,1366,4.292533333333333,
546,default,block2,tony,ai,0,2593,admit,43,admit,C,[],74,Yes,,Male,english,Chrome,Windows,768,1366,4.292533333333333,
546,default,block2,kids,ai,1,3399,MC,44,MC,MC,[],74,Yes,,Male,english,Chrome,Windows,768,1366,4.292533333333333,
546,default,block2,ballet,ai,1,3072,MC,45,MC,MC,[],74,Yes,,Male,english,Chrome,Windows,768,1366,4.292533333333333,
546,default,block2,hat,ai,1,4832,MC,46,MC,MC,[],74,Yes,,Male,english,Chrome,Windows,768,1366,4.292533333333333,
546,default,block2,jon,ai,0,3536,establish,47,establish,C,[],74,Yes,,Male,english,Chrome,Windows,768,1366,4.292533333333333,
546,default,block2,grace,ai,0,3720,think,48,think,C,[],74,Yes,,Male,english,Chrome,Windows,768,1366,4.292533333333333,
546,default,block2,jackson,ai,0,3088,demonstrate,49,demonstrate,C,[],74,Yes,,Male,english,Chrome,Windows,768,1366,4.292533333333333,
546,default,block2,isabella,ai,0,3168,suggest,50,suggest,C,[],74,Yes,,Male,english,Chrome,Windows,768,1366,4.292533333333333,
546,default,block2,pizza,ai,1,2576,MC,51,MC,MC,[],74,Yes,,Male,english,Chrome,Windows,768,1366,4.292533333333333,
546,default,block2,danny,ai,0,3456,pretend,52,pretend,C,[],74,Yes,,Male,english,Chrome,Windows,768,1366,4.292533333333333,
546,default,block2,zoe,ai,0,4232,confirm,53,confirm,C,[],74,Yes,,Male,english,Chrome,Windows,768,1366,4.292533333333333,
546,default,block2,mary,ai,0,3399,prove,54,prove,C,[],74,Yes,,Male,english,Chrome,Windows,768,1366,4.292533333333333,
546,default,block2,muffins,ai,1,3817,MC,55,MC,MC,[],74,Yes,,Male,english,Chrome,Windows,768,1366,4.292533333333333,
546,default,block2,josie,ai,0,2640,confess,56,confess,C,[],74,Yes,,Male,english,Chrome,Windows,768,1366,4.292533333333333,
546,default,block2,emma,ai,0,4696,be_right,57,be_right,C,[],74,Yes,,Male,english,Chrome,Windows,768,1366,4.292533333333333,
685,default,block1,ballet,ai,0.98,11238,MC,5,MC,MC,[],38,Yes,Thanks,Female,english,Chrome,Mac,800,1280,10.917733333333333,
685,default,block1,jackson,ai,1,23346,demonstrate,6,demonstrate,C,[],38,Yes,Thanks,Female,english,Chrome,Mac,800,1280,10.917733333333333,
685,default,block1,grace,ai,0.01,31518,announce,7,announce,C,[],38,Yes,Thanks,Female,english,Chrome,Mac,800,1280,10.917733333333333,
685,default,block1,owen,ai,0.01,23192,say,8,say,C,[],38,Yes,Thanks,Female,english,Chrome,Mac,800,1280,10.917733333333333,
685,default,block1,kids,ai,0.98,9820,MC,9,MC,MC,[],38,Yes,Thanks,Female,english,Chrome,Mac,800,1280,10.917733333333333,
685,default,block1,isabella,ai,0.03,9016,inform,10,inform,C,[],38,Yes,Thanks,Female,english,Chrome,Mac,800,1280,10.917733333333333,
685,default,block1,mary,ai,0.03,7598,discover,11,discover,C,[],38,Yes,Thanks,Female,english,Chrome,Mac,800,1280,10.917733333333333,
685,default,block1,danny,ai,0.01,8483,pretend,12,pretend,C,[],38,Yes,Thanks,Female,english,Chrome,Mac,800,1280,10.917733333333333,
685,default,block1,jon,ai,0,21127,admit,13,admit,C,[],38,Yes,Thanks,Female,english,Chrome,Mac,800,1280,10.917733333333333,
685,default,block1,zoe,ai,0.01,26183,hear,14,hear,C,[],38,Yes,Thanks,Female,english,Chrome,Mac,800,1280,10.917733333333333,
685,default,block1,emily,ai,0.02,7083,acknowledge,15,acknowledge,C,[],38,Yes,Thanks,Female,english,Chrome,Mac,800,1280,10.917733333333333,
685,default,block1,emma,ai,0.03,26314,confirm,16,confirm,C,[],38,Yes,Thanks,Female,english,Chrome,Mac,800,1280,10.917733333333333,
685,default,block1,josh,ai,0.02,7957,see,17,see,C,[],38,Yes,Thanks,Female,english,Chrome,Mac,800,1280,10.917733333333333,
685,default,block1,hat,ai,1,5633,MC,18,MC,MC,[],38,Yes,Thanks,Female,english,Chrome,Mac,800,1280,10.917733333333333,
685,default,block1,jayden,ai,0,7458,confess,19,confess,C,[],38,Yes,Thanks,Female,english,Chrome,Mac,800,1280,10.917733333333333,
685,default,block1,garage,ai,1,4137,MC,20,MC,MC,[],38,Yes,Thanks,Female,english,Chrome,Mac,800,1280,10.917733333333333,
685,default,block1,mia,ai,0,7429,establish,21,establish,C,[],38,Yes,Thanks,Female,english,Chrome,Mac,800,1280,10.917733333333333,
685,default,block1,julian,ai,0.19,31445,be_right,22,be_right,C,[],38,Yes,Thanks,Female,english,Chrome,Mac,800,1280,10.917733333333333,
685,default,block1,tony,ai,0,8636,prove,23,prove,C,[],38,Yes,Thanks,Female,english,Chrome,Mac,800,1280,10.917733333333333,
685,default,block1,olivia,ai,0,12192,be_annoyed,24,be_annoyed,C,[],38,Yes,Thanks,Female,english,Chrome,Mac,800,1280,10.917733333333333,
685,default,block1,pizza,ai,1,4194,MC,25,MC,MC,[],38,Yes,Thanks,Female,english,Chrome,Mac,800,1280,10.917733333333333,
685,default,block1,muffins,ai,1,3844,MC,26,MC,MC,[],38,Yes,Thanks,Female,english,Chrome,Mac,800,1280,10.917733333333333,
685,default,block1,sophia,ai,0,4898,know,27,know,C,[],38,Yes,Thanks,Female,english,Chrome,Mac,800,1280,10.917733333333333,
685,default,block1,charley,ai,0,5594,reveal,28,reveal,C,[],38,Yes,Thanks,Female,english,Chrome,Mac,800,1280,10.917733333333333,
685,default,block1,frank,ai,0,4697,suggest,29,suggest,C,[],38,Yes,Thanks,Female,english,Chrome,Mac,800,1280,10.917733333333333,
685,default,block1,josie,ai,0,6329,think,30,think,C,[],38,Yes,Thanks,Female,english,Chrome,Mac,800,1280,10.917733333333333,
685,default,block2,olivia,projective,0.77,15044,be_annoyed,32,be_annoyed,C,[],38,Yes,Thanks,Female,english,Chrome,Mac,800,1280,10.917733333333333,
685,default,block2,charley,projective,0.97,7494,reveal,33,reveal,C,[],38,Yes,Thanks,Female,english,Chrome,Mac,800,1280,10.917733333333333,
685,default,block2,mary,projective,0.94,6516,discover,34,discover,C,[],38,Yes,Thanks,Female,english,Chrome,Mac,800,1280,10.917733333333333,
685,default,block2,muffins,projective,1,4404,MC,35,MC,MC,[],38,Yes,Thanks,Female,english,Chrome,Mac,800,1280,10.917733333333333,
685,default,block2,josie,projective,0.49,11484,think,36,think,C,[],38,Yes,Thanks,Female,english,Chrome,Mac,800,1280,10.917733333333333,
685,default,block2,frank,projective,0.5,6780,suggest,37,suggest,C,[],38,Yes,Thanks,Female,english,Chrome,Mac,800,1280,10.917733333333333,
685,default,block2,jackson,projective,0.5,8864,demonstrate,38,demonstrate,C,[],38,Yes,Thanks,Female,english,Chrome,Mac,800,1280,10.917733333333333,
685,default,block2,tony,projective,0.92,6498,prove,39,prove,C,[],38,Yes,Thanks,Female,english,Chrome,Mac,800,1280,10.917733333333333,
685,default,block2,josh,projective,0.8,8527,see,40,see,C,[],38,Yes,Thanks,Female,english,Chrome,Mac,800,1280,10.917733333333333,
685,default,block2,isabella,projective,0.67,11156,inform,41,inform,C,[],38,Yes,Thanks,Female,english,Chrome,Mac,800,1280,10.917733333333333,
685,default,block2,emily,projective,0.71,6256,acknowledge,42,acknowledge,C,[],38,Yes,Thanks,Female,english,Chrome,Mac,800,1280,10.917733333333333,
685,default,block2,sophia,projective,0.97,9120,know,43,know,C,[],38,Yes,Thanks,Female,english,Chrome,Mac,800,1280,10.917733333333333,
685,default,block2,grace,projective,0.87,6778,announce,44,announce,C,[],38,Yes,Thanks,Female,english,Chrome,Mac,800,1280,10.917733333333333,
685,default,block2,julian,projective,0.81,10912,be_right,45,be_right,C,[],38,Yes,Thanks,Female,english,Chrome,Mac,800,1280,10.917733333333333,
685,default,block2,hat,projective,1,3726,MC,46,MC,MC,[],38,Yes,Thanks,Female,english,Chrome,Mac,800,1280,10.917733333333333,
685,default,block2,owen,projective,0.47,7998,say,47,say,C,[],38,Yes,Thanks,Female,english,Chrome,Mac,800,1280,10.917733333333333,
685,default,block2,mia,projective,0.3,6526,establish,48,establish,C,[],38,Yes,Thanks,Female,english,Chrome,Mac,800,1280,10.917733333333333,
685,default,block2,emma,projective,0.38,7020,confirm,49,confirm,C,[],38,Yes,Thanks,Female,english,Chrome,Mac,800,1280,10.917733333333333,
685,default,block2,pizza,projective,1,3372,MC,50,MC,MC,[],38,Yes,Thanks,Female,english,Chrome,Mac,800,1280,10.917733333333333,
685,default,block2,ballet,projective,1,3314,MC,51,MC,MC,[],38,Yes,Thanks,Female,english,Chrome,Mac,800,1280,10.917733333333333,
685,default,block2,jon,projective,0.49,4454,admit,52,admit,C,[],38,Yes,Thanks,Female,english,Chrome,Mac,800,1280,10.917733333333333,
685,default,block2,garage,projective,1,3333,MC,53,MC,MC,[],38,Yes,Thanks,Female,english,Chrome,Mac,800,1280,10.917733333333333,
685,default,block2,kids,projective,1,10193,MC,54,MC,MC,[],38,Yes,Thanks,Female,english,Chrome,Mac,800,1280,10.917733333333333,
685,default,block2,danny,projective,0.19,25720,pretend,55,pretend,C,[],38,Yes,Thanks,Female,english,Chrome,Mac,800,1280,10.917733333333333,
685,default,block2,jayden,projective,0.65,8294,confess,56,confess,C,[],38,Yes,Thanks,Female,english,Chrome,Mac,800,1280,10.917733333333333,
685,default,block2,zoe,projective,0.79,4298,hear,57,hear,C,[],38,Yes,Thanks,Female,english,Chrome,Mac,800,1280,10.917733333333333,
495,default,block1,isabella,projective,0.7,15551,acknowledge,5,acknowledge,C,[],30,Yes,,Male,English,Chrome,Windows,1080,1920,10.623983333333332,
495,default,block1,mia,projective,0.19,13104,pretend,6,pretend,C,[],30,Yes,,Male,English,Chrome,Windows,1080,1920,10.623983333333332,
495,default,block1,josie,projective,0.84,8064,see,7,see,C,[],30,Yes,,Male,English,Chrome,Windows,1080,1920,10.623983333333332,
495,default,block1,tony,projective,0.23,16311,announce,8,announce,C,[],30,Yes,,Male,English,Chrome,Windows,1080,1920,10.623983333333332,
495,default,block1,julian,projective,0.84,12768,confirm,9,confirm,C,[],30,Yes,,Male,English,Chrome,Windows,1080,1920,10.623983333333332,
495,default,block1,charley,projective,0.92,9152,reveal,10,reveal,C,[],30,Yes,,Male,English,Chrome,Windows,1080,1920,10.623983333333332,
495,default,block1,garage,projective,1,9776,MC,11,MC,MC,[],30,Yes,,Male,English,Chrome,Windows,1080,1920,10.623983333333332,
495,default,block1,kids,projective,1,31120,MC,12,MC,MC,[],30,Yes,,Male,English,Chrome,Windows,1080,1920,10.623983333333332,
495,default,block1,sophia,projective,0.63,22448,confess,13,confess,C,[],30,Yes,,Male,English,Chrome,Windows,1080,1920,10.623983333333332,
495,default,block1,mary,projective,0.9,5392,hear,14,hear,C,[],30,Yes,,Male,English,Chrome,Windows,1080,1920,10.623983333333332,
495,default,block1,frank,projective,0.3,6072,say,15,say,C,[],30,Yes,,Male,English,Chrome,Windows,1080,1920,10.623983333333332,
495,default,block1,emily,projective,0.13,7624,think,16,think,C,[],30,Yes,,Male,English,Chrome,Windows,1080,1920,10.623983333333332,
495,default,block1,pizza,projective,1,4384,MC,17,MC,MC,[],30,Yes,,Male,English,Chrome,Windows,1080,1920,10.623983333333332,
495,default,block1,grace,projective,0.88,10184,be_annoyed,18,be_annoyed,C,[],30,Yes,,Male,English,Chrome,Windows,1080,1920,10.623983333333332,
495,default,block1,olivia,projective,0.19,7200,suggest,19,suggest,C,[],30,Yes,,Male,English,Chrome,Windows,1080,1920,10.623983333333332,
495,default,block1,danny,projective,0.87,7720,prove,20,prove,C,[],30,Yes,,Male,English,Chrome,Windows,1080,1920,10.623983333333332,
495,default,block1,josh,projective,0.26,12824,establish,21,establish,C,[],30,Yes,,Male,English,Chrome,Windows,1080,1920,10.623983333333332,
495,default,block1,ballet,projective,1,3320,MC,22,MC,MC,[],30,Yes,,Male,English,Chrome,Windows,1080,1920,10.623983333333332,
495,default,block1,jon,projective,1,8880,know,23,know,C,[],30,Yes,,Male,English,Chrome,Windows,1080,1920,10.623983333333332,
495,default,block1,owen,projective,1,24680,admit,24,admit,C,[],30,Yes,,Male,English,Chrome,Windows,1080,1920,10.623983333333332,
495,default,block1,hat,projective,1,2912,MC,25,MC,MC,[],30,Yes,,Male,English,Chrome,Windows,1080,1920,10.623983333333332,
495,default,block1,muffins,projective,1,3536,MC,26,MC,MC,[],30,Yes,,Male,English,Chrome,Windows,1080,1920,10.623983333333332,
495,default,block1,zoe,projective,0.44,11400,be_right,27,be_right,C,[],30,Yes,,Male,English,Chrome,Windows,1080,1920,10.623983333333332,
495,default,block1,jackson,projective,0.84,8688,discover,28,discover,C,[],30,Yes,,Male,English,Chrome,Windows,1080,1920,10.623983333333332,
495,default,block1,jayden,projective,0.36,6632,demonstrate,29,demonstrate,C,[],30,Yes,,Male,English,Chrome,Windows,1080,1920,10.623983333333332,
495,default,block1,emma,projective,0.35,9072,inform,30,inform,C,[],30,Yes,,Male,English,Chrome,Windows,1080,1920,10.623983333333332,
495,default,block2,pizza,ai,1,5447,MC,32,MC,MC,[],30,Yes,,Male,English,Chrome,Windows,1080,1920,10.623983333333332,
495,default,block2,emma,ai,0.32,11831,inform,33,inform,C,[],30,Yes,,Male,English,Chrome,Windows,1080,1920,10.623983333333332,
495,default,block2,olivia,ai,0.3,13720,suggest,34,suggest,C,[],30,Yes,,Male,English,Chrome,Windows,1080,1920,10.623983333333332,
495,default,block2,ballet,ai,1,4832,MC,35,MC,MC,[],30,Yes,,Male,English,Chrome,Windows,1080,1920,10.623983333333332,
495,default,block2,danny,ai,0.37,13231,prove,36,prove,C,[],30,Yes,,Male,English,Chrome,Windows,1080,1920,10.623983333333332,
495,default,block2,kids,ai,1,4200,MC,37,MC,MC,[],30,Yes,,Male,English,Chrome,Windows,1080,1920,10.623983333333332,
495,default,block2,julian,ai,0.76,15752,confirm,38,confirm,C,[],30,Yes,,Male,English,Chrome,Windows,1080,1920,10.623983333333332,
495,default,block2,jayden,ai,0.78,4168,demonstrate,39,demonstrate,C,[],30,Yes,,Male,English,Chrome,Windows,1080,1920,10.623983333333332,
495,default,block2,emily,ai,0.27,6440,think,40,think,C,[],30,Yes,,Male,English,Chrome,Windows,1080,1920,10.623983333333332,
495,default,block2,hat,ai,1,2496,MC,41,MC,MC,[],30,Yes,,Male,English,Chrome,Windows,1080,1920,10.623983333333332,
495,default,block2,frank,ai,0.8,17848,say,42,say,C,[],30,Yes,,Male,English,Chrome,Windows,1080,1920,10.623983333333332,
495,default,block2,garage,ai,1,3576,MC,43,MC,MC,[],30,Yes,,Male,English,Chrome,Windows,1080,1920,10.623983333333332,
495,default,block2,josh,ai,0.73,6344,establish,44,establish,C,[],30,Yes,,Male,English,Chrome,Windows,1080,1920,10.623983333333332,
495,default,block2,jon,ai,0.34,6632,know,45,know,C,[],30,Yes,,Male,English,Chrome,Windows,1080,1920,10.623983333333332,
495,default,block2,mia,ai,0.15,8656,pretend,46,pretend,C,[],30,Yes,,Male,English,Chrome,Windows,1080,1920,10.623983333333332,
495,default,block2,mary,ai,0.6,9769,hear,47,hear,C,[],30,Yes,,Male,English,Chrome,Windows,1080,1920,10.623983333333332,
495,default,block2,grace,ai,0.11,5680,be_annoyed,48,be_annoyed,C,[],30,Yes,,Male,English,Chrome,Windows,1080,1920,10.623983333333332,
495,default,block2,zoe,ai,0.9,15520,be_right,49,be_right,C,[],30,Yes,,Male,English,Chrome,Windows,1080,1920,10.623983333333332,
495,default,block2,jackson,ai,0.3,11792,discover,50,discover,C,[],30,Yes,,Male,English,Chrome,Windows,1080,1920,10.623983333333332,
495,default,block2,tony,ai,0.62,14736,announce,51,announce,C,[],30,Yes,,Male,English,Chrome,Windows,1080,1920,10.623983333333332,
495,default,block2,charley,ai,0.59,8416,reveal,52,reveal,C,[],30,Yes,,Male,English,Chrome,Windows,1080,1920,10.623983333333332,
495,default,block2,owen,ai,0.29,15463,admit,53,admit,C,[],30,Yes,,Male,English,Chrome,Windows,1080,1920,10.623983333333332,
495,default,block2,isabella,ai,0.58,38887,acknowledge,54,acknowledge,C,[],30,Yes,,Male,English,Chrome,Windows,1080,1920,10.623983333333332,
495,default,block2,josie,ai,0.1,5464,see,55,see,C,[],30,Yes,,Male,English,Chrome,Windows,1080,1920,10.623983333333332,
495,default,block2,muffins,ai,1,3568,MC,56,MC,MC,[],30,Yes,,Male,English,Chrome,Windows,1080,1920,10.623983333333332,
495,default,block2,sophia,ai,0.67,5576,confess,57,confess,C,[],30,Yes,,Male,English,Chrome,Windows,1080,1920,10.623983333333332,
405,default,block1,tony,ai,0.02,9846,discover,5,discover,C,[],18,Yes,,Male,English,Chrome,Windows,1080,1920,6.115983333333333,
405,default,block1,jayden,ai,0.02,8061,know,6,know,C,[],18,Yes,,Male,English,Chrome,Windows,1080,1920,6.115983333333333,
405,default,block1,mia,ai,0.02,8465,demonstrate,7,demonstrate,C,[],18,Yes,,Male,English,Chrome,Windows,1080,1920,6.115983333333333,
405,default,block1,muffins,ai,0.98,7662,MC,8,MC,MC,[],18,Yes,,Male,English,Chrome,Windows,1080,1920,6.115983333333333,
405,default,block1,emma,ai,0.02,11523,be_annoyed,9,be_annoyed,C,[],18,Yes,,Male,English,Chrome,Windows,1080,1920,6.115983333333333,
405,default,block1,frank,ai,0.02,7922,acknowledge,10,acknowledge,C,[],18,Yes,,Male,English,Chrome,Windows,1080,1920,6.115983333333333,
405,default,block1,josie,ai,0.02,17418,hear,11,hear,C,[],18,Yes,,Male,English,Chrome,Windows,1080,1920,6.115983333333333,
405,default,block1,garage,ai,1,5859,MC,12,MC,MC,[],18,Yes,,Male,English,Chrome,Windows,1080,1920,6.115983333333333,
405,default,block1,ballet,ai,1,4683,MC,13,MC,MC,[],18,Yes,,Male,English,Chrome,Windows,1080,1920,6.115983333333333,
405,default,block1,charley,ai,0,4070,inform,14,inform,C,[],18,Yes,,Male,English,Chrome,Windows,1080,1920,6.115983333333333,
405,default,block1,grace,ai,0,4550,confess,15,confess,C,[],18,Yes,,Male,English,Chrome,Windows,1080,1920,6.115983333333333,
405,default,block1,jon,ai,0,5110,establish,16,establish,C,[],18,Yes,,Male,English,Chrome,Windows,1080,1920,6.115983333333333,
405,default,block1,danny,ai,0,3522,be_right,17,be_right,C,[],18,Yes,,Male,English,Chrome,Windows,1080,1920,6.115983333333333,
405,default,block1,olivia,ai,0,4528,reveal,18,reveal,C,[],18,Yes,,Male,English,Chrome,Windows,1080,1920,6.115983333333333,
405,default,block1,julian,ai,0,5465,think,19,think,C,[],18,Yes,,Male,English,Chrome,Windows,1080,1920,6.115983333333333,
405,default,block1,jackson,ai,0,3582,admit,20,admit,C,[],18,Yes,,Male,English,Chrome,Windows,1080,1920,6.115983333333333,
405,default,block1,pizza,ai,1,3121,MC,21,MC,MC,[],18,Yes,,Male,English,Chrome,Windows,1080,1920,6.115983333333333,
405,default,block1,kids,ai,1,4980,MC,22,MC,MC,[],18,Yes,,Male,English,Chrome,Windows,1080,1920,6.115983333333333,
405,default,block1,sophia,ai,0,3187,suggest,23,suggest,C,[],18,Yes,,Male,English,Chrome,Windows,1080,1920,6.115983333333333,
405,default,block1,owen,ai,0,3627,announce,24,announce,C,[],18,Yes,,Male,English,Chrome,Windows,1080,1920,6.115983333333333,
405,default,block1,hat,ai,1,4418,MC,25,MC,MC,[],18,Yes,,Male,English,Chrome,Windows,1080,1920,6.115983333333333,
405,default,block1,josh,ai,0,4003,pretend,26,pretend,C,[],18,Yes,,Male,English,Chrome,Windows,1080,1920,6.115983333333333,
405,default,block1,mary,ai,0,3382,say,27,say,C,[],18,Yes,,Male,English,Chrome,Windows,1080,1920,6.115983333333333,
405,default,block1,isabella,ai,0,6707,prove,28,prove,C,[],18,Yes,,Male,English,Chrome,Windows,1080,1920,6.115983333333333,
405,default,block1,zoe,ai,0,3320,confirm,29,confirm,C,[],18,Yes,,Male,English,Chrome,Windows,1080,1920,6.115983333333333,
405,default,block1,emily,ai,0,3971,see,30,see,C,[],18,Yes,,Male,English,Chrome,Windows,1080,1920,6.115983333333333,
405,default,block2,zoe,projective,0.68,8156,confirm,32,confirm,C,[],18,Yes,,Male,English,Chrome,Windows,1080,1920,6.115983333333333,
405,default,block2,grace,projective,1,8637,confess,33,confess,C,[],18,Yes,,Male,English,Chrome,Windows,1080,1920,6.115983333333333,
405,default,block2,kids,projective,1,5363,MC,34,MC,MC,[],18,Yes,,Male,English,Chrome,Windows,1080,1920,6.115983333333333,
405,default,block2,emma,projective,1,6500,be_annoyed,35,be_annoyed,C,[],18,Yes,,Male,English,Chrome,Windows,1080,1920,6.115983333333333,
405,default,block2,muffins,projective,1,3104,MC,36,MC,MC,[],18,Yes,,Male,English,Chrome,Windows,1080,1920,6.115983333333333,
405,default,block2,hat,projective,1,3435,MC,37,MC,MC,[],18,Yes,,Male,English,Chrome,Windows,1080,1920,6.115983333333333,
405,default,block2,mia,projective,0.82,7246,demonstrate,38,demonstrate,C,[],18,Yes,,Male,English,Chrome,Windows,1080,1920,6.115983333333333,
405,default,block2,charley,projective,1,3381,inform,39,inform,C,[],18,Yes,,Male,English,Chrome,Windows,1080,1920,6.115983333333333,
405,default,block2,sophia,projective,0.5,7863,suggest,40,suggest,C,[],18,Yes,,Male,English,Chrome,Windows,1080,1920,6.115983333333333,
405,default,block2,josie,projective,0.98,8401,hear,41,hear,C,[],18,Yes,,Male,English,Chrome,Windows,1080,1920,6.115983333333333,
405,default,block2,jon,projective,1,5832,establish,42,establish,C,[],18,Yes,,Male,English,Chrome,Windows,1080,1920,6.115983333333333,
405,default,block2,olivia,projective,1,4445,reveal,43,reveal,C,[],18,Yes,,Male,English,Chrome,Windows,1080,1920,6.115983333333333,
405,default,block2,emily,projective,1,6028,see,44,see,C,[],18,Yes,,Male,English,Chrome,Windows,1080,1920,6.115983333333333,
405,default,block2,pizza,projective,1,2674,MC,45,MC,MC,[],18,Yes,,Male,English,Chrome,Windows,1080,1920,6.115983333333333,
405,default,block2,josh,projective,0,7152,pretend,46,pretend,C,[],18,Yes,,Male,English,Chrome,Windows,1080,1920,6.115983333333333,
405,default,block2,frank,projective,1,7448,acknowledge,47,acknowledge,C,[],18,Yes,,Male,English,Chrome,Windows,1080,1920,6.115983333333333,
405,default,block2,jayden,projective,1,4115,know,48,know,C,[],18,Yes,,Male,English,Chrome,Windows,1080,1920,6.115983333333333,
405,default,block2,julian,projective,0,5200,think,49,think,C,[],18,Yes,,Male,English,Chrome,Windows,1080,1920,6.115983333333333,
405,default,block2,danny,projective,0.36,8679,be_right,50,be_right,C,[],18,Yes,,Male,English,Chrome,Windows,1080,1920,6.115983333333333,
405,default,block2,mary,projective,0,8031,say,51,say,C,[],18,Yes,,Male,English,Chrome,Windows,1080,1920,6.115983333333333,
405,default,block2,garage,projective,1,3014,MC,52,MC,MC,[],18,Yes,,Male,English,Chrome,Windows,1080,1920,6.115983333333333,
405,default,block2,tony,projective,0.23,5070,discover,53,discover,C,[],18,Yes,,Male,English,Chrome,Windows,1080,1920,6.115983333333333,
405,default,block2,jackson,projective,1,4222,admit,54,admit,C,[],18,Yes,,Male,English,Chrome,Windows,1080,1920,6.115983333333333,
405,default,block2,isabella,projective,0,4080,prove,55,prove,C,[],18,Yes,,Male,English,Chrome,Windows,1080,1920,6.115983333333333,
405,default,block2,owen,projective,1,3539,announce,56,announce,C,[],18,Yes,,Male,English,Chrome,Windows,1080,1920,6.115983333333333,
405,default,block2,ballet,projective,1,2178,MC,57,MC,MC,[],18,Yes,,Male,English,Chrome,Windows,1080,1920,6.115983333333333,
383,default,block1,charley,projective,0.79,14144,announce,5,announce,C,[],18,Yes,,Female,English,Safari,Mac,900,1440,6.2407,
383,default,block1,emma,projective,0.36,10033,think,6,think,C,[],18,Yes,,Female,English,Safari,Mac,900,1440,6.2407,
383,default,block1,sophia,projective,0.72,7625,hear,7,hear,C,[],18,Yes,,Female,English,Safari,Mac,900,1440,6.2407,
383,default,block1,tony,projective,0.77,9225,discover,8,discover,C,[],18,Yes,,Female,English,Safari,Mac,900,1440,6.2407,
383,default,block1,julian,projective,0.28,6454,demonstrate,9,demonstrate,C,[],18,Yes,,Female,English,Safari,Mac,900,1440,6.2407,
383,default,block1,jon,projective,0.62,5719,be_right,10,be_right,C,[],18,Yes,,Female,English,Safari,Mac,900,1440,6.2407,
383,default,block1,kids,projective,0.92,7438,MC,11,MC,MC,[],18,Yes,,Female,English,Safari,Mac,900,1440,6.2407,
383,default,block1,grace,projective,0.28,4749,acknowledge,12,acknowledge,C,[],18,Yes,,Female,English,Safari,Mac,900,1440,6.2407,
383,default,block1,emily,projective,0.25,1927,confirm,13,confirm,C,[],18,Yes,,Female,English,Safari,Mac,900,1440,6.2407,
383,default,block1,zoe,projective,0.35,1643,see,14,see,C,[],18,Yes,,Female,English,Safari,Mac,900,1440,6.2407,
383,default,block1,danny,projective,0.36,1449,be_annoyed,15,be_annoyed,C,[],18,Yes,,Female,English,Safari,Mac,900,1440,6.2407,
383,default,block1,pizza,projective,0.96,2237,MC,16,MC,MC,[],18,Yes,,Female,English,Safari,Mac,900,1440,6.2407,
383,default,block1,josh,projective,0.42,1937,confess,17,confess,C,[],18,Yes,,Female,English,Safari,Mac,900,1440,6.2407,
383,default,block1,hat,projective,0.95,1872,MC,18,MC,MC,[],18,Yes,,Female,English,Safari,Mac,900,1440,6.2407,
383,default,block1,jayden,projective,0.4,1783,reveal,19,reveal,C,[],18,Yes,,Female,English,Safari,Mac,900,1440,6.2407,
383,default,block1,josie,projective,0.3,3320,suggest,20,suggest,C,[],18,Yes,,Female,English,Safari,Mac,900,1440,6.2407,
383,default,block1,ballet,projective,0.96,1944,MC,21,MC,MC,[],18,Yes,,Female,English,Safari,Mac,900,1440,6.2407,
383,default,block1,isabella,projective,0.27,1777,inform,22,inform,C,[],18,Yes,,Female,English,Safari,Mac,900,1440,6.2407,
383,default,block1,muffins,projective,0.97,1840,MC,23,MC,MC,[],18,Yes,,Female,English,Safari,Mac,900,1440,6.2407,
383,default,block1,garage,projective,0.96,5482,MC,24,MC,MC,[],18,Yes,,Female,English,Safari,Mac,900,1440,6.2407,
383,default,block1,owen,projective,0.36,1538,establish,25,establish,C,[],18,Yes,,Female,English,Safari,Mac,900,1440,6.2407,
383,default,block1,mia,projective,0.36,1188,say,26,say,C,[],18,Yes,,Female,English,Safari,Mac,900,1440,6.2407,
383,default,block1,olivia,projective,0.43,1289,admit,27,admit,C,[],18,Yes,,Female,English,Safari,Mac,900,1440,6.2407,
383,default,block1,frank,projective,0.45,1170,pretend,28,pretend,C,[],18,Yes,,Female,English,Safari,Mac,900,1440,6.2407,
383,default,block1,jackson,projective,0.22,1076,know,29,know,C,[],18,Yes,,Female,English,Safari,Mac,900,1440,6.2407,
383,default,block1,mary,projective,0.24,1147,prove,30,prove,C,[],18,Yes,,Female,English,Safari,Mac,900,1440,6.2407,
383,default,block2,zoe,ai,0.18,10689,see,32,see,C,[],18,Yes,,Female,English,Safari,Mac,900,1440,6.2407,
383,default,block2,danny,ai,0.26,8593,be_annoyed,33,be_annoyed,C,[],18,Yes,,Female,English,Safari,Mac,900,1440,6.2407,
383,default,block2,kids,ai,0.97,6045,MC,34,MC,MC,[],18,Yes,,Female,English,Safari,Mac,900,1440,6.2407,
383,default,block2,jon,ai,0.77,7748,be_right,35,be_right,C,[],18,Yes,,Female,English,Safari,Mac,900,1440,6.2407,
383,default,block2,emma,ai,0.75,7294,think,36,think,C,[],18,Yes,,Female,English,Safari,Mac,900,1440,6.2407,
383,default,block2,grace,ai,0.27,3997,acknowledge,37,acknowledge,C,[],18,Yes,,Female,English,Safari,Mac,900,1440,6.2407,
383,default,block2,julian,ai,0.36,36637,demonstrate,38,demonstrate,C,[],18,Yes,,Female,English,Safari,Mac,900,1440,6.2407,
383,default,block2,josie,ai,0.76,5312,suggest,39,suggest,C,[],18,Yes,,Female,English,Safari,Mac,900,1440,6.2407,
383,default,block2,sophia,ai,0.7,4915,hear,40,hear,C,[],18,Yes,,Female,English,Safari,Mac,900,1440,6.2407,
383,default,block2,isabella,ai,0.32,6702,inform,41,inform,C,[],18,Yes,,Female,English,Safari,Mac,900,1440,6.2407,
383,default,block2,frank,ai,0.22,7623,pretend,42,pretend,C,[],18,Yes,,Female,English,Safari,Mac,900,1440,6.2407,
383,default,block2,tony,ai,0.83,6764,discover,43,discover,C,[],18,Yes,,Female,English,Safari,Mac,900,1440,6.2407,
383,default,block2,charley,ai,0.48,11519,announce,44,announce,C,[],18,Yes,,Female,English,Safari,Mac,900,1440,6.2407,
383,default,block2,josh,ai,0.09,14881,confess,45,confess,C,[],18,Yes,,Female,English,Safari,Mac,900,1440,6.2407,
383,default,block2,muffins,ai,0.91,4327,MC,46,MC,MC,[],18,Yes,,Female,English,Safari,Mac,900,1440,6.2407,
383,default,block2,mary,ai,0.67,11917,prove,47,prove,C,[],18,Yes,,Female,English,Safari,Mac,900,1440,6.2407,
383,default,block2,ballet,ai,0.97,5095,MC,48,MC,MC,[],18,Yes,,Female,English,Safari,Mac,900,1440,6.2407,
383,default,block2,jackson,ai,0.24,6051,know,49,know,C,[],18,Yes,,Female,English,Safari,Mac,900,1440,6.2407,
383,default,block2,hat,ai,0.96,3090,MC,50,MC,MC,[],18,Yes,,Female,English,Safari,Mac,900,1440,6.2407,
383,default,block2,owen,ai,0.19,7463,establish,51,establish,C,[],18,Yes,,Female,English,Safari,Mac,900,1440,6.2407,
383,default,block2,jayden,ai,0.27,4853,reveal,52,reveal,C,[],18,Yes,,Female,English,Safari,Mac,900,1440,6.2407,
383,default,block2,olivia,ai,0.12,7210,admit,53,admit,C,[],18,Yes,,Female,English,Safari,Mac,900,1440,6.2407,
383,default,block2,garage,ai,0.97,3682,MC,54,MC,MC,[],18,Yes,,Female,English,Safari,Mac,900,1440,6.2407,
383,default,block2,emily,ai,0.71,4911,confirm,55,confirm,C,[],18,Yes,,Female,English,Safari,Mac,900,1440,6.2407,
383,default,block2,pizza,ai,0.94,7270,MC,56,MC,MC,[],18,Yes,,Female,English,Safari,Mac,900,1440,6.2407,
383,default,block2,mia,ai,0.3,3243,say,57,say,C,[],18,Yes,,Female,English,Safari,Mac,900,1440,6.2407,
583,default,block1,mary,ai,0.01,21859,admit,5,admit,C,[],72,Yes,"I thought this was difficult and possibly subjective? I'd be curious to know what the researchers had in mind and what the ""correct"" answers were. I felt like I was trying to apply some kind of logic or reasoning to determine the answers and sometimes wondered if I was over  thinking it or if I was right!",Female,English,Chrome,Windows,864,1536,19.403283333333334,
583,default,block1,isabella,ai,0.02,19152,acknowledge,6,acknowledge,C,[],72,Yes,"I thought this was difficult and possibly subjective? I'd be curious to know what the researchers had in mind and what the ""correct"" answers were. I felt like I was trying to apply some kind of logic or reasoning to determine the answers and sometimes wondered if I was over  thinking it or if I was right!",Female,English,Chrome,Windows,864,1536,19.403283333333334,
583,default,block1,muffins,ai,0.97,11800,MC,7,MC,MC,[],72,Yes,"I thought this was difficult and possibly subjective? I'd be curious to know what the researchers had in mind and what the ""correct"" answers were. I felt like I was trying to apply some kind of logic or reasoning to determine the answers and sometimes wondered if I was over  thinking it or if I was right!",Female,English,Chrome,Windows,864,1536,19.403283333333334,
583,default,block1,pizza,ai,0.96,7796,MC,8,MC,MC,[],72,Yes,"I thought this was difficult and possibly subjective? I'd be curious to know what the researchers had in mind and what the ""correct"" answers were. I felt like I was trying to apply some kind of logic or reasoning to determine the answers and sometimes wondered if I was over  thinking it or if I was right!",Female,English,Chrome,Windows,864,1536,19.403283333333334,
583,default,block1,jayden,ai,0.04,28636,reveal,9,reveal,C,[],72,Yes,"I thought this was difficult and possibly subjective? I'd be curious to know what the researchers had in mind and what the ""correct"" answers were. I felt like I was trying to apply some kind of logic or reasoning to determine the answers and sometimes wondered if I was over  thinking it or if I was right!",Female,English,Chrome,Windows,864,1536,19.403283333333334,
583,default,block1,owen,ai,0.97,30693,be_right,10,be_right,C,[],72,Yes,"I thought this was difficult and possibly subjective? I'd be curious to know what the researchers had in mind and what the ""correct"" answers were. I felt like I was trying to apply some kind of logic or reasoning to determine the answers and sometimes wondered if I was over  thinking it or if I was right!",Female,English,Chrome,Windows,864,1536,19.403283333333334,
583,default,block1,olivia,ai,0.03,19335,confess,11,confess,C,[],72,Yes,"I thought this was difficult and possibly subjective? I'd be curious to know what the researchers had in mind and what the ""correct"" answers were. I felt like I was trying to apply some kind of logic or reasoning to determine the answers and sometimes wondered if I was over  thinking it or if I was right!",Female,English,Chrome,Windows,864,1536,19.403283333333334,
583,default,block1,tony,ai,0.05,48316,announce,12,announce,C,[],72,Yes,"I thought this was difficult and possibly subjective? I'd be curious to know what the researchers had in mind and what the ""correct"" answers were. I felt like I was trying to apply some kind of logic or reasoning to determine the answers and sometimes wondered if I was over  thinking it or if I was right!",Female,English,Chrome,Windows,864,1536,19.403283333333334,
583,default,block1,ballet,ai,0.98,5783,MC,13,MC,MC,[],72,Yes,"I thought this was difficult and possibly subjective? I'd be curious to know what the researchers had in mind and what the ""correct"" answers were. I felt like I was trying to apply some kind of logic or reasoning to determine the answers and sometimes wondered if I was over  thinking it or if I was right!",Female,English,Chrome,Windows,864,1536,19.403283333333334,
583,default,block1,kids,ai,0.97,6255,MC,14,MC,MC,[],72,Yes,"I thought this was difficult and possibly subjective? I'd be curious to know what the researchers had in mind and what the ""correct"" answers were. I felt like I was trying to apply some kind of logic or reasoning to determine the answers and sometimes wondered if I was over  thinking it or if I was right!",Female,English,Chrome,Windows,864,1536,19.403283333333334,
583,default,block1,grace,ai,0.04,9840,inform,15,inform,C,[],72,Yes,"I thought this was difficult and possibly subjective? I'd be curious to know what the researchers had in mind and what the ""correct"" answers were. I felt like I was trying to apply some kind of logic or reasoning to determine the answers and sometimes wondered if I was over  thinking it or if I was right!",Female,English,Chrome,Windows,864,1536,19.403283333333334,
583,default,block1,mia,ai,0.03,42537,confirm,16,confirm,C,[],72,Yes,"I thought this was difficult and possibly subjective? I'd be curious to know what the researchers had in mind and what the ""correct"" answers were. I felt like I was trying to apply some kind of logic or reasoning to determine the answers and sometimes wondered if I was over  thinking it or if I was right!",Female,English,Chrome,Windows,864,1536,19.403283333333334,
583,default,block1,josh,ai,0.98,28784,pretend,17,pretend,C,[],72,Yes,"I thought this was difficult and possibly subjective? I'd be curious to know what the researchers had in mind and what the ""correct"" answers were. I felt like I was trying to apply some kind of logic or reasoning to determine the answers and sometimes wondered if I was over  thinking it or if I was right!",Female,English,Chrome,Windows,864,1536,19.403283333333334,
583,default,block1,julian,ai,0.94,11872,discover,18,discover,C,[],72,Yes,"I thought this was difficult and possibly subjective? I'd be curious to know what the researchers had in mind and what the ""correct"" answers were. I felt like I was trying to apply some kind of logic or reasoning to determine the answers and sometimes wondered if I was over  thinking it or if I was right!",Female,English,Chrome,Windows,864,1536,19.403283333333334,
583,default,block1,jon,ai,0.01,16004,suggest,19,suggest,C,[],72,Yes,"I thought this was difficult and possibly subjective? I'd be curious to know what the researchers had in mind and what the ""correct"" answers were. I felt like I was trying to apply some kind of logic or reasoning to determine the answers and sometimes wondered if I was over  thinking it or if I was right!",Female,English,Chrome,Windows,864,1536,19.403283333333334,
583,default,block1,emma,ai,0.02,8588,be_annoyed,20,be_annoyed,C,[],72,Yes,"I thought this was difficult and possibly subjective? I'd be curious to know what the researchers had in mind and what the ""correct"" answers were. I felt like I was trying to apply some kind of logic or reasoning to determine the answers and sometimes wondered if I was over  thinking it or if I was right!",Female,English,Chrome,Windows,864,1536,19.403283333333334,
583,default,block1,jackson,ai,0.06,6232,know,21,know,C,[],72,Yes,"I thought this was difficult and possibly subjective? I'd be curious to know what the researchers had in mind and what the ""correct"" answers were. I felt like I was trying to apply some kind of logic or reasoning to determine the answers and sometimes wondered if I was over  thinking it or if I was right!",Female,English,Chrome,Windows,864,1536,19.403283333333334,
583,default,block1,frank,ai,0.03,20992,hear,22,hear,C,[],72,Yes,"I thought this was difficult and possibly subjective? I'd be curious to know what the researchers had in mind and what the ""correct"" answers were. I felt like I was trying to apply some kind of logic or reasoning to determine the answers and sometimes wondered if I was over  thinking it or if I was right!",Female,English,Chrome,Windows,864,1536,19.403283333333334,
583,default,block1,josie,ai,0.97,19724,establish,23,establish,C,[],72,Yes,"I thought this was difficult and possibly subjective? I'd be curious to know what the researchers had in mind and what the ""correct"" answers were. I felt like I was trying to apply some kind of logic or reasoning to determine the answers and sometimes wondered if I was over  thinking it or if I was right!",Female,English,Chrome,Windows,864,1536,19.403283333333334,
583,default,block1,zoe,ai,0.03,11128,think,24,think,C,[],72,Yes,"I thought this was difficult and possibly subjective? I'd be curious to know what the researchers had in mind and what the ""correct"" answers were. I felt like I was trying to apply some kind of logic or reasoning to determine the answers and sometimes wondered if I was over  thinking it or if I was right!",Female,English,Chrome,Windows,864,1536,19.403283333333334,
583,default,block1,hat,ai,0.95,6215,MC,25,MC,MC,[],72,Yes,"I thought this was difficult and possibly subjective? I'd be curious to know what the researchers had in mind and what the ""correct"" answers were. I felt like I was trying to apply some kind of logic or reasoning to determine the answers and sometimes wondered if I was over  thinking it or if I was right!",Female,English,Chrome,Windows,864,1536,19.403283333333334,
583,default,block1,emily,ai,0,11432,see,26,see,C,[],72,Yes,"I thought this was difficult and possibly subjective? I'd be curious to know what the researchers had in mind and what the ""correct"" answers were. I felt like I was trying to apply some kind of logic or reasoning to determine the answers and sometimes wondered if I was over  thinking it or if I was right!",Female,English,Chrome,Windows,864,1536,19.403283333333334,
583,default,block1,danny,ai,0.02,34972,demonstrate,27,demonstrate,C,[],72,Yes,"I thought this was difficult and possibly subjective? I'd be curious to know what the researchers had in mind and what the ""correct"" answers were. I felt like I was trying to apply some kind of logic or reasoning to determine the answers and sometimes wondered if I was over  thinking it or if I was right!",Female,English,Chrome,Windows,864,1536,19.403283333333334,
583,default,block1,garage,ai,0.97,4703,MC,28,MC,MC,[],72,Yes,"I thought this was difficult and possibly subjective? I'd be curious to know what the researchers had in mind and what the ""correct"" answers were. I felt like I was trying to apply some kind of logic or reasoning to determine the answers and sometimes wondered if I was over  thinking it or if I was right!",Female,English,Chrome,Windows,864,1536,19.403283333333334,
583,default,block1,charley,ai,0.04,21363,say,29,say,C,[],72,Yes,"I thought this was difficult and possibly subjective? I'd be curious to know what the researchers had in mind and what the ""correct"" answers were. I felt like I was trying to apply some kind of logic or reasoning to determine the answers and sometimes wondered if I was over  thinking it or if I was right!",Female,English,Chrome,Windows,864,1536,19.403283333333334,
583,default,block1,sophia,ai,0.03,56313,prove,30,prove,C,[],72,Yes,"I thought this was difficult and possibly subjective? I'd be curious to know what the researchers had in mind and what the ""correct"" answers were. I felt like I was trying to apply some kind of logic or reasoning to determine the answers and sometimes wondered if I was over  thinking it or if I was right!",Female,English,Chrome,Windows,864,1536,19.403283333333334,
583,default,block2,tony,projective,0.96,14883,announce,32,announce,C,[],72,Yes,"I thought this was difficult and possibly subjective? I'd be curious to know what the researchers had in mind and what the ""correct"" answers were. I felt like I was trying to apply some kind of logic or reasoning to determine the answers and sometimes wondered if I was over  thinking it or if I was right!",Female,English,Chrome,Windows,864,1536,19.403283333333334,
583,default,block2,garage,projective,0.98,4832,MC,33,MC,MC,[],72,Yes,"I thought this was difficult and possibly subjective? I'd be curious to know what the researchers had in mind and what the ""correct"" answers were. I felt like I was trying to apply some kind of logic or reasoning to determine the answers and sometimes wondered if I was over  thinking it or if I was right!",Female,English,Chrome,Windows,864,1536,19.403283333333334,
583,default,block2,danny,projective,0.97,20087,demonstrate,34,demonstrate,C,[],72,Yes,"I thought this was difficult and possibly subjective? I'd be curious to know what the researchers had in mind and what the ""correct"" answers were. I felt like I was trying to apply some kind of logic or reasoning to determine the answers and sometimes wondered if I was over  thinking it or if I was right!",Female,English,Chrome,Windows,864,1536,19.403283333333334,
583,default,block2,josie,projective,0.99,19656,establish,35,establish,C,[],72,Yes,"I thought this was difficult and possibly subjective? I'd be curious to know what the researchers had in mind and what the ""correct"" answers were. I felt like I was trying to apply some kind of logic or reasoning to determine the answers and sometimes wondered if I was over  thinking it or if I was right!",Female,English,Chrome,Windows,864,1536,19.403283333333334,
583,default,block2,olivia,projective,0.97,8708,confess,36,confess,C,[],72,Yes,"I thought this was difficult and possibly subjective? I'd be curious to know what the researchers had in mind and what the ""correct"" answers were. I felt like I was trying to apply some kind of logic or reasoning to determine the answers and sometimes wondered if I was over  thinking it or if I was right!",Female,English,Chrome,Windows,864,1536,19.403283333333334,
583,default,block2,ballet,projective,0.97,4596,MC,37,MC,MC,[],72,Yes,"I thought this was difficult and possibly subjective? I'd be curious to know what the researchers had in mind and what the ""correct"" answers were. I felt like I was trying to apply some kind of logic or reasoning to determine the answers and sometimes wondered if I was over  thinking it or if I was right!",Female,English,Chrome,Windows,864,1536,19.403283333333334,
583,default,block2,julian,projective,0.95,14568,discover,38,discover,C,[],72,Yes,"I thought this was difficult and possibly subjective? I'd be curious to know what the researchers had in mind and what the ""correct"" answers were. I felt like I was trying to apply some kind of logic or reasoning to determine the answers and sometimes wondered if I was over  thinking it or if I was right!",Female,English,Chrome,Windows,864,1536,19.403283333333334,
583,default,block2,pizza,projective,0.98,5784,MC,39,MC,MC,[],72,Yes,"I thought this was difficult and possibly subjective? I'd be curious to know what the researchers had in mind and what the ""correct"" answers were. I felt like I was trying to apply some kind of logic or reasoning to determine the answers and sometimes wondered if I was over  thinking it or if I was right!",Female,English,Chrome,Windows,864,1536,19.403283333333334,
583,default,block2,hat,projective,0.99,5761,MC,40,MC,MC,[],72,Yes,"I thought this was difficult and possibly subjective? I'd be curious to know what the researchers had in mind and what the ""correct"" answers were. I felt like I was trying to apply some kind of logic or reasoning to determine the answers and sometimes wondered if I was over  thinking it or if I was right!",Female,English,Chrome,Windows,864,1536,19.403283333333334,
583,default,block2,frank,projective,0.95,41888,hear,41,hear,C,[],72,Yes,"I thought this was difficult and possibly subjective? I'd be curious to know what the researchers had in mind and what the ""correct"" answers were. I felt like I was trying to apply some kind of logic or reasoning to determine the answers and sometimes wondered if I was over  thinking it or if I was right!",Female,English,Chrome,Windows,864,1536,19.403283333333334,
583,default,block2,kids,projective,0.99,5776,MC,42,MC,MC,[],72,Yes,"I thought this was difficult and possibly subjective? I'd be curious to know what the researchers had in mind and what the ""correct"" answers were. I felt like I was trying to apply some kind of logic or reasoning to determine the answers and sometimes wondered if I was over  thinking it or if I was right!",Female,English,Chrome,Windows,864,1536,19.403283333333334,
583,default,block2,jayden,projective,0.97,6120,reveal,43,reveal,C,[],72,Yes,"I thought this was difficult and possibly subjective? I'd be curious to know what the researchers had in mind and what the ""correct"" answers were. I felt like I was trying to apply some kind of logic or reasoning to determine the answers and sometimes wondered if I was over  thinking it or if I was right!",Female,English,Chrome,Windows,864,1536,19.403283333333334,
583,default,block2,grace,projective,0.98,9788,inform,44,inform,C,[],72,Yes,"I thought this was difficult and possibly subjective? I'd be curious to know what the researchers had in mind and what the ""correct"" answers were. I felt like I was trying to apply some kind of logic or reasoning to determine the answers and sometimes wondered if I was over  thinking it or if I was right!",Female,English,Chrome,Windows,864,1536,19.403283333333334,
583,default,block2,jackson,projective,0.96,7264,know,45,know,C,[],72,Yes,"I thought this was difficult and possibly subjective? I'd be curious to know what the researchers had in mind and what the ""correct"" answers were. I felt like I was trying to apply some kind of logic or reasoning to determine the answers and sometimes wondered if I was over  thinking it or if I was right!",Female,English,Chrome,Windows,864,1536,19.403283333333334,
583,default,block2,owen,projective,0.96,25512,be_right,46,be_right,C,[],72,Yes,"I thought this was difficult and possibly subjective? I'd be curious to know what the researchers had in mind and what the ""correct"" answers were. I felt like I was trying to apply some kind of logic or reasoning to determine the answers and sometimes wondered if I was over  thinking it or if I was right!",Female,English,Chrome,Windows,864,1536,19.403283333333334,
583,default,block2,isabella,projective,0.95,7784,acknowledge,47,acknowledge,C,[],72,Yes,"I thought this was difficult and possibly subjective? I'd be curious to know what the researchers had in mind and what the ""correct"" answers were. I felt like I was trying to apply some kind of logic or reasoning to determine the answers and sometimes wondered if I was over  thinking it or if I was right!",Female,English,Chrome,Windows,864,1536,19.403283333333334,
583,default,block2,jon,projective,0.03,22707,suggest,48,suggest,C,[],72,Yes,"I thought this was difficult and possibly subjective? I'd be curious to know what the researchers had in mind and what the ""correct"" answers were. I felt like I was trying to apply some kind of logic or reasoning to determine the answers and sometimes wondered if I was over  thinking it or if I was right!",Female,English,Chrome,Windows,864,1536,19.403283333333334,
583,default,block2,sophia,projective,0.01,27244,prove,49,prove,C,[],72,Yes,"I thought this was difficult and possibly subjective? I'd be curious to know what the researchers had in mind and what the ""correct"" answers were. I felt like I was trying to apply some kind of logic or reasoning to determine the answers and sometimes wondered if I was over  thinking it or if I was right!",Female,English,Chrome,Windows,864,1536,19.403283333333334,
583,default,block2,josh,projective,0.01,9992,pretend,50,pretend,C,[],72,Yes,"I thought this was difficult and possibly subjective? I'd be curious to know what the researchers had in mind and what the ""correct"" answers were. I felt like I was trying to apply some kind of logic or reasoning to determine the answers and sometimes wondered if I was over  thinking it or if I was right!",Female,English,Chrome,Windows,864,1536,19.403283333333334,
583,default,block2,mary,projective,0.99,31360,admit,51,admit,C,[],72,Yes,"I thought this was difficult and possibly subjective? I'd be curious to know what the researchers had in mind and what the ""correct"" answers were. I felt like I was trying to apply some kind of logic or reasoning to determine the answers and sometimes wondered if I was over  thinking it or if I was right!",Female,English,Chrome,Windows,864,1536,19.403283333333334,
583,default,block2,muffins,projective,0.98,4671,MC,52,MC,MC,[],72,Yes,"I thought this was difficult and possibly subjective? I'd be curious to know what the researchers had in mind and what the ""correct"" answers were. I felt like I was trying to apply some kind of logic or reasoning to determine the answers and sometimes wondered if I was over  thinking it or if I was right!",Female,English,Chrome,Windows,864,1536,19.403283333333334,
583,default,block2,emily,projective,0.97,7252,see,53,see,C,[],72,Yes,"I thought this was difficult and possibly subjective? I'd be curious to know what the researchers had in mind and what the ""correct"" answers were. I felt like I was trying to apply some kind of logic or reasoning to determine the answers and sometimes wondered if I was over  thinking it or if I was right!",Female,English,Chrome,Windows,864,1536,19.403283333333334,
583,default,block2,zoe,projective,0.03,18988,think,54,think,C,[],72,Yes,"I thought this was difficult and possibly subjective? I'd be curious to know what the researchers had in mind and what the ""correct"" answers were. I felt like I was trying to apply some kind of logic or reasoning to determine the answers and sometimes wondered if I was over  thinking it or if I was right!",Female,English,Chrome,Windows,864,1536,19.403283333333334,
583,default,block2,mia,projective,0.98,24975,confirm,55,confirm,C,[],72,Yes,"I thought this was difficult and possibly subjective? I'd be curious to know what the researchers had in mind and what the ""correct"" answers were. I felt like I was trying to apply some kind of logic or reasoning to determine the answers and sometimes wondered if I was over  thinking it or if I was right!",Female,English,Chrome,Windows,864,1536,19.403283333333334,
583,default,block2,charley,projective,0.01,25572,say,56,say,C,[],72,Yes,"I thought this was difficult and possibly subjective? I'd be curious to know what the researchers had in mind and what the ""correct"" answers were. I felt like I was trying to apply some kind of logic or reasoning to determine the answers and sometimes wondered if I was over  thinking it or if I was right!",Female,English,Chrome,Windows,864,1536,19.403283333333334,
583,default,block2,emma,projective,0.97,9840,be_annoyed,57,be_annoyed,C,[],72,Yes,"I thought this was difficult and possibly subjective? I'd be curious to know what the researchers had in mind and what the ""correct"" answers were. I felt like I was trying to apply some kind of logic or reasoning to determine the answers and sometimes wondered if I was over  thinking it or if I was right!",Female,English,Chrome,Windows,864,1536,19.403283333333334,
567,default,block1,jackson,ai,0,9372,reveal,5,reveal,C,[],19,Yes,,Female,,Chrome,Windows,864,1536,5.813766666666667,
567,default,block1,julian,ai,0,8104,pretend,6,pretend,C,[],19,Yes,,Female,,Chrome,Windows,864,1536,5.813766666666667,
567,default,block1,hat,ai,1,4282,MC,7,MC,MC,[],19,Yes,,Female,,Chrome,Windows,864,1536,5.813766666666667,
567,default,block1,tony,ai,0,10970,think,8,think,C,[],19,Yes,,Female,,Chrome,Windows,864,1536,5.813766666666667,
567,default,block1,zoe,ai,0,6878,establish,9,establish,C,[],19,Yes,,Female,,Chrome,Windows,864,1536,5.813766666666667,
567,default,block1,danny,ai,0,8969,hear,10,hear,C,[],19,Yes,,Female,,Chrome,Windows,864,1536,5.813766666666667,
567,default,block1,garage,ai,1,4762,MC,11,MC,MC,[],19,Yes,,Female,,Chrome,Windows,864,1536,5.813766666666667,
567,default,block1,jon,ai,0,7006,demonstrate,12,demonstrate,C,[],19,Yes,,Female,,Chrome,Windows,864,1536,5.813766666666667,
567,default,block1,isabella,ai,0,9416,say,13,say,C,[],19,Yes,,Female,,Chrome,Windows,864,1536,5.813766666666667,
567,default,block1,mary,ai,0,4806,know,14,know,C,[],19,Yes,,Female,,Chrome,Windows,864,1536,5.813766666666667,
567,default,block1,pizza,ai,1,3973,MC,15,MC,MC,[],19,Yes,,Female,,Chrome,Windows,864,1536,5.813766666666667,
567,default,block1,ballet,ai,1,4051,MC,16,MC,MC,[],19,Yes,,Female,,Chrome,Windows,864,1536,5.813766666666667,
567,default,block1,frank,ai,0,4568,discover,17,discover,C,[],19,Yes,,Female,,Chrome,Windows,864,1536,5.813766666666667,
567,default,block1,josh,ai,0,4925,announce,18,announce,C,[],19,Yes,,Female,,Chrome,Windows,864,1536,5.813766666666667,
567,default,block1,grace,ai,0,4843,be_annoyed,19,be_annoyed,C,[],19,Yes,,Female,,Chrome,Windows,864,1536,5.813766666666667,
567,default,block1,kids,ai,1,2987,MC,20,MC,MC,[],19,Yes,,Female,,Chrome,Windows,864,1536,5.813766666666667,
567,default,block1,sophia,ai,0,4032,prove,21,prove,C,[],19,Yes,,Female,,Chrome,Windows,864,1536,5.813766666666667,
567,default,block1,emily,ai,0,4674,see,22,see,C,[],19,Yes,,Female,,Chrome,Windows,864,1536,5.813766666666667,
567,default,block1,josie,ai,0,7561,confirm,23,confirm,C,[],19,Yes,,Female,,Chrome,Windows,864,1536,5.813766666666667,
567,default,block1,emma,ai,0,5974,be_right,24,be_right,C,[],19,Yes,,Female,,Chrome,Windows,864,1536,5.813766666666667,
567,default,block1,charley,ai,0,12591,admit,25,admit,C,[],19,Yes,,Female,,Chrome,Windows,864,1536,5.813766666666667,
567,default,block1,olivia,ai,0,2856,confess,26,confess,C,[],19,Yes,,Female,,Chrome,Windows,864,1536,5.813766666666667,
567,default,block1,muffins,ai,1,2630,MC,27,MC,MC,[],19,Yes,,Female,,Chrome,Windows,864,1536,5.813766666666667,
567,default,block1,mia,ai,0,3579,suggest,28,suggest,C,[],19,Yes,,Female,,Chrome,Windows,864,1536,5.813766666666667,
567,default,block1,jayden,ai,0,2357,inform,29,inform,C,[],19,Yes,,Female,,Chrome,Windows,864,1536,5.813766666666667,
567,default,block1,owen,ai,0,3472,acknowledge,30,acknowledge,C,[],19,Yes,,Female,,Chrome,Windows,864,1536,5.813766666666667,
567,default,block2,frank,projective,1,7961,discover,32,discover,C,[],19,Yes,,Female,,Chrome,Windows,864,1536,5.813766666666667,
567,default,block2,danny,projective,1,4938,hear,33,hear,C,[],19,Yes,,Female,,Chrome,Windows,864,1536,5.813766666666667,
567,default,block2,grace,projective,1,2732,be_annoyed,34,be_annoyed,C,[],19,Yes,,Female,,Chrome,Windows,864,1536,5.813766666666667,
567,default,block2,ballet,projective,1,3118,MC,35,MC,MC,[],19,Yes,,Female,,Chrome,Windows,864,1536,5.813766666666667,
567,default,block2,isabella,projective,0.33,6572,say,36,say,C,[],19,Yes,,Female,,Chrome,Windows,864,1536,5.813766666666667,
567,default,block2,kids,projective,1,3796,MC,37,MC,MC,[],19,Yes,,Female,,Chrome,Windows,864,1536,5.813766666666667,
567,default,block2,jackson,projective,1,3828,reveal,38,reveal,C,[],19,Yes,,Female,,Chrome,Windows,864,1536,5.813766666666667,
567,default,block2,emma,projective,0.25,9962,be_right,39,be_right,C,[],19,Yes,,Female,,Chrome,Windows,864,1536,5.813766666666667,
567,default,block2,mary,projective,1,3778,know,40,know,C,[],19,Yes,,Female,,Chrome,Windows,864,1536,5.813766666666667,
567,default,block2,sophia,projective,0.56,5372,prove,41,prove,C,[],19,Yes,,Female,,Chrome,Windows,864,1536,5.813766666666667,
567,default,block2,muffins,projective,1,3328,MC,42,MC,MC,[],19,Yes,,Female,,Chrome,Windows,864,1536,5.813766666666667,
567,default,block2,owen,projective,1,14718,acknowledge,43,acknowledge,C,[],19,Yes,,Female,,Chrome,Windows,864,1536,5.813766666666667,
567,default,block2,hat,projective,0.98,2592,MC,44,MC,MC,[],19,Yes,,Female,,Chrome,Windows,864,1536,5.813766666666667,
567,default,block2,emily,projective,1,4258,see,45,see,C,[],19,Yes,,Female,,Chrome,Windows,864,1536,5.813766666666667,
567,default,block2,jon,projective,0.5,4579,demonstrate,46,demonstrate,C,[],19,Yes,,Female,,Chrome,Windows,864,1536,5.813766666666667,
567,default,block2,charley,projective,0.35,5835,admit,47,admit,C,[],19,Yes,,Female,,Chrome,Windows,864,1536,5.813766666666667,
567,default,block2,pizza,projective,1,7544,MC,48,MC,MC,[],19,Yes,,Female,,Chrome,Windows,864,1536,5.813766666666667,
567,default,block2,josh,projective,0.04,3488,announce,49,announce,C,[],19,Yes,,Female,,Chrome,Windows,864,1536,5.813766666666667,
567,default,block2,jayden,projective,1,4461,inform,50,inform,C,[],19,Yes,,Female,,Chrome,Windows,864,1536,5.813766666666667,
567,default,block2,julian,projective,0.16,4888,pretend,51,pretend,C,[],19,Yes,,Female,,Chrome,Windows,864,1536,5.813766666666667,
567,default,block2,tony,projective,0.18,8292,think,52,think,C,[],19,Yes,,Female,,Chrome,Windows,864,1536,5.813766666666667,
567,default,block2,mia,projective,0.23,3706,suggest,53,suggest,C,[],19,Yes,,Female,,Chrome,Windows,864,1536,5.813766666666667,
567,default,block2,josie,projective,0.08,5163,confirm,54,confirm,C,[],19,Yes,,Female,,Chrome,Windows,864,1536,5.813766666666667,
567,default,block2,zoe,projective,0.85,5556,establish,55,establish,C,[],19,Yes,,Female,,Chrome,Windows,864,1536,5.813766666666667,
567,default,block2,garage,projective,1,2517,MC,56,MC,MC,[],19,Yes,,Female,,Chrome,Windows,864,1536,5.813766666666667,
567,default,block2,olivia,projective,0.11,7169,confess,57,confess,C,[],19,Yes,,Female,,Chrome,Windows,864,1536,5.813766666666667,
379,default,block1,josh,ai,1,29630,know,5,know,C,[],39,Yes,None,Male,English,Chrome,Windows,768,1366,15.516433333333334,
379,default,block1,pizza,ai,0.99,18664,MC,6,MC,MC,[],39,Yes,None,Male,English,Chrome,Windows,768,1366,15.516433333333334,
379,default,block1,mary,ai,0.91,56214,discover,7,discover,C,[],39,Yes,None,Male,English,Chrome,Windows,768,1366,15.516433333333334,
379,default,block1,grace,ai,0.93,23086,be_annoyed,8,be_annoyed,C,[],39,Yes,None,Male,English,Chrome,Windows,768,1366,15.516433333333334,
379,default,block1,jon,ai,0.21,22706,see,9,see,C,[],39,Yes,None,Male,English,Chrome,Windows,768,1366,15.516433333333334,
379,default,block1,sophia,ai,0.04,19655,inform,10,inform,C,[],39,Yes,None,Male,English,Chrome,Windows,768,1366,15.516433333333334,
379,default,block1,jackson,ai,0.06,64220,establish,11,establish,C,[],39,Yes,None,Male,English,Chrome,Windows,768,1366,15.516433333333334,
379,default,block1,frank,ai,0.05,9413,say,12,say,C,[],39,Yes,None,Male,English,Chrome,Windows,768,1366,15.516433333333334,
379,default,block1,charley,ai,0.31,17796,acknowledge,13,acknowledge,C,[],39,Yes,None,Male,English,Chrome,Windows,768,1366,15.516433333333334,
379,default,block1,emily,ai,0.23,18540,announce,14,announce,C,[],39,Yes,None,Male,English,Chrome,Windows,768,1366,15.516433333333334,
379,default,block1,emma,ai,0.11,10503,prove,15,prove,C,[],39,Yes,None,Male,English,Chrome,Windows,768,1366,15.516433333333334,
379,default,block1,jayden,ai,0.2,42992,be_right,16,be_right,C,[],39,Yes,None,Male,English,Chrome,Windows,768,1366,15.516433333333334,
379,default,block1,olivia,ai,0.36,12036,think,17,think,C,[],39,Yes,None,Male,English,Chrome,Windows,768,1366,15.516433333333334,
379,default,block1,danny,ai,0.53,13483,admit,18,admit,C,[],39,Yes,None,Male,English,Chrome,Windows,768,1366,15.516433333333334,
379,default,block1,garage,ai,0.92,11942,MC,19,MC,MC,[],39,Yes,None,Male,English,Chrome,Windows,768,1366,15.516433333333334,
379,default,block1,josie,ai,0.31,13269,hear,20,hear,C,[],39,Yes,None,Male,English,Chrome,Windows,768,1366,15.516433333333334,
379,default,block1,kids,ai,0.99,9536,MC,21,MC,MC,[],39,Yes,None,Male,English,Chrome,Windows,768,1366,15.516433333333334,
379,default,block1,owen,ai,0.21,9320,demonstrate,22,demonstrate,C,[],39,Yes,None,Male,English,Chrome,Windows,768,1366,15.516433333333334,
379,default,block1,mia,ai,0.12,9287,reveal,23,reveal,C,[],39,Yes,None,Male,English,Chrome,Windows,768,1366,15.516433333333334,
379,default,block1,isabella,ai,0.12,7090,confess,24,confess,C,[],39,Yes,None,Male,English,Chrome,Windows,768,1366,15.516433333333334,
379,default,block1,tony,ai,0.14,10092,pretend,25,pretend,C,[],39,Yes,None,Male,English,Chrome,Windows,768,1366,15.516433333333334,
379,default,block1,ballet,ai,0.99,7909,MC,26,MC,MC,[],39,Yes,None,Male,English,Chrome,Windows,768,1366,15.516433333333334,
379,default,block1,julian,ai,0.28,9450,suggest,27,suggest,C,[],39,Yes,None,Male,English,Chrome,Windows,768,1366,15.516433333333334,
379,default,block1,hat,ai,1,29122,MC,28,MC,MC,[],39,Yes,None,Male,English,Chrome,Windows,768,1366,15.516433333333334,
379,default,block1,muffins,ai,0.98,9341,MC,29,MC,MC,[],39,Yes,None,Male,English,Chrome,Windows,768,1366,15.516433333333334,
379,default,block1,zoe,ai,0.41,9551,confirm,30,confirm,C,[],39,Yes,None,Male,English,Chrome,Windows,768,1366,15.516433333333334,
379,default,block2,hat,projective,0.48,10757,MC,32,MC,MC,[],39,Yes,None,Male,English,Chrome,Windows,768,1366,15.516433333333334,
379,default,block2,owen,projective,0.19,10076,demonstrate,33,demonstrate,C,[],39,Yes,None,Male,English,Chrome,Windows,768,1366,15.516433333333334,
379,default,block2,jayden,projective,0.49,11461,be_right,34,be_right,C,[],39,Yes,None,Male,English,Chrome,Windows,768,1366,15.516433333333334,
379,default,block2,danny,projective,0.15,7158,admit,35,admit,C,[],39,Yes,None,Male,English,Chrome,Windows,768,1366,15.516433333333334,
379,default,block2,jackson,projective,0.37,9782,establish,36,establish,C,[],39,Yes,None,Male,English,Chrome,Windows,768,1366,15.516433333333334,
379,default,block2,olivia,projective,0.24,5648,think,37,think,C,[],39,Yes,None,Male,English,Chrome,Windows,768,1366,15.516433333333334,
379,default,block2,mia,projective,0.23,8141,reveal,38,reveal,C,[],39,Yes,None,Male,English,Chrome,Windows,768,1366,15.516433333333334,
379,default,block2,charley,projective,0.24,7103,acknowledge,39,acknowledge,C,[],39,Yes,None,Male,English,Chrome,Windows,768,1366,15.516433333333334,
379,default,block2,garage,projective,0.79,7769,MC,40,MC,MC,[],39,Yes,None,Male,English,Chrome,Windows,768,1366,15.516433333333334,
379,default,block2,mary,projective,0.25,7514,discover,41,discover,C,[],39,Yes,None,Male,English,Chrome,Windows,768,1366,15.516433333333334,
379,default,block2,emma,projective,0.18,7436,prove,42,prove,C,[],39,Yes,None,Male,English,Chrome,Windows,768,1366,15.516433333333334,
379,default,block2,pizza,projective,0.8,8054,MC,43,MC,MC,[],39,Yes,None,Male,English,Chrome,Windows,768,1366,15.516433333333334,
379,default,block2,kids,projective,0.76,8551,MC,44,MC,MC,[],39,Yes,None,Male,English,Chrome,Windows,768,1366,15.516433333333334,
379,default,block2,josie,projective,0.04,7838,hear,45,hear,C,[],39,Yes,None,Male,English,Chrome,Windows,768,1366,15.516433333333334,
379,default,block2,josh,projective,0.21,5957,know,46,know,C,[],39,Yes,None,Male,English,Chrome,Windows,768,1366,15.516433333333334,
379,default,block2,zoe,projective,0.13,10873,confirm,47,confirm,C,[],39,Yes,None,Male,English,Chrome,Windows,768,1366,15.516433333333334,
379,default,block2,frank,projective,0.51,8759,say,48,say,C,[],39,Yes,None,Male,English,Chrome,Windows,768,1366,15.516433333333334,
379,default,block2,muffins,projective,0.97,6708,MC,49,MC,MC,[],39,Yes,None,Male,English,Chrome,Windows,768,1366,15.516433333333334,
379,default,block2,julian,projective,0.49,5548,suggest,50,suggest,C,[],39,Yes,None,Male,English,Chrome,Windows,768,1366,15.516433333333334,
379,default,block2,grace,projective,0.5,5462,be_annoyed,51,be_annoyed,C,[],39,Yes,None,Male,English,Chrome,Windows,768,1366,15.516433333333334,
379,default,block2,ballet,projective,0.85,6166,MC,52,MC,MC,[],39,Yes,None,Male,English,Chrome,Windows,768,1366,15.516433333333334,
379,default,block2,tony,projective,0.52,8101,pretend,53,pretend,C,[],39,Yes,None,Male,English,Chrome,Windows,768,1366,15.516433333333334,
379,default,block2,jon,projective,0.2,9099,see,54,see,C,[],39,Yes,None,Male,English,Chrome,Windows,768,1366,15.516433333333334,
379,default,block2,isabella,projective,0.04,9579,confess,55,confess,C,[],39,Yes,None,Male,English,Chrome,Windows,768,1366,15.516433333333334,
379,default,block2,sophia,projective,0.07,4981,inform,56,inform,C,[],39,Yes,None,Male,English,Chrome,Windows,768,1366,15.516433333333334,
379,default,block2,emily,projective,0.14,7065,announce,57,announce,C,[],39,Yes,None,Male,English,Chrome,Windows,768,1366,15.516433333333334,
687,default,block1,frank,ai,0.05,16774,be_right,5,be_right,C,[],51,Yes,,Male,English,Chrome,Linux,938,412,5.730816666666667,
687,default,block1,josie,ai,0.13,8047,reveal,6,reveal,C,[],51,Yes,,Male,English,Chrome,Linux,938,412,5.730816666666667,
687,default,block1,julian,ai,0.12,8748,inform,7,inform,C,[],51,Yes,,Male,English,Chrome,Linux,938,412,5.730816666666667,
687,default,block1,hat,ai,0.93,4796,MC,8,MC,MC,[],51,Yes,,Male,English,Chrome,Linux,938,412,5.730816666666667,
687,default,block1,jayden,ai,0.12,5560,see,9,see,C,[],51,Yes,,Male,English,Chrome,Linux,938,412,5.730816666666667,
687,default,block1,danny,ai,0.2,5344,confirm,10,confirm,C,[],51,Yes,,Male,English,Chrome,Linux,938,412,5.730816666666667,
687,default,block1,owen,ai,0.11,6112,think,11,think,C,[],51,Yes,,Male,English,Chrome,Linux,938,412,5.730816666666667,
687,default,block1,charley,ai,0.12,5510,announce,12,announce,C,[],51,Yes,,Male,English,Chrome,Linux,938,412,5.730816666666667,
687,default,block1,mary,ai,0.08,6153,be_annoyed,13,be_annoyed,C,[],51,Yes,,Male,English,Chrome,Linux,938,412,5.730816666666667,
687,default,block1,pizza,ai,0.93,5163,MC,14,MC,MC,[],51,Yes,,Male,English,Chrome,Linux,938,412,5.730816666666667,
687,default,block1,josh,ai,0.1,7429,admit,15,admit,C,[],51,Yes,,Male,English,Chrome,Linux,938,412,5.730816666666667,
687,default,block1,kids,ai,0.88,8569,MC,16,MC,MC,[],51,Yes,,Male,English,Chrome,Linux,938,412,5.730816666666667,
687,default,block1,grace,ai,0.09,4499,say,17,say,C,[],51,Yes,,Male,English,Chrome,Linux,938,412,5.730816666666667,
687,default,block1,isabella,ai,0.09,4705,demonstrate,18,demonstrate,C,[],51,Yes,,Male,English,Chrome,Linux,938,412,5.730816666666667,
687,default,block1,emma,ai,0.08,5370,suggest,19,suggest,C,[],51,Yes,,Male,English,Chrome,Linux,938,412,5.730816666666667,
687,default,block1,olivia,ai,0.13,18222,hear,20,hear,C,[],51,Yes,,Male,English,Chrome,Linux,938,412,5.730816666666667,
687,default,block1,mia,ai,0.11,3844,prove,21,prove,C,[],51,Yes,,Male,English,Chrome,Linux,938,412,5.730816666666667,
687,default,block1,tony,ai,0.07,3433,establish,22,establish,C,[],51,Yes,,Male,English,Chrome,Linux,938,412,5.730816666666667,
687,default,block1,jackson,ai,0.06,4630,acknowledge,23,acknowledge,C,[],51,Yes,,Male,English,Chrome,Linux,938,412,5.730816666666667,
687,default,block1,garage,ai,0.94,4128,MC,24,MC,MC,[],51,Yes,,Male,English,Chrome,Linux,938,412,5.730816666666667,
687,default,block1,muffins,ai,0.93,5999,MC,25,MC,MC,[],51,Yes,,Male,English,Chrome,Linux,938,412,5.730816666666667,
687,default,block1,zoe,ai,0.1,3261,discover,26,discover,C,[],51,Yes,,Male,English,Chrome,Linux,938,412,5.730816666666667,
687,default,block1,sophia,ai,0.08,9556,know,27,know,C,[],51,Yes,,Male,English,Chrome,Linux,938,412,5.730816666666667,
687,default,block1,emily,ai,0.15,3898,confess,28,confess,C,[],51,Yes,,Male,English,Chrome,Linux,938,412,5.730816666666667,
687,default,block1,ballet,ai,0.92,5164,MC,29,MC,MC,[],51,Yes,,Male,English,Chrome,Linux,938,412,5.730816666666667,
687,default,block1,jon,ai,0.09,5694,pretend,30,pretend,C,[],51,Yes,,Male,English,Chrome,Linux,938,412,5.730816666666667,
687,default,block2,frank,projective,0.1,7983,be_right,32,be_right,C,[],51,Yes,,Male,English,Chrome,Linux,938,412,5.730816666666667,
687,default,block2,julian,projective,0.15,14307,inform,33,inform,C,[],51,Yes,,Male,English,Chrome,Linux,938,412,5.730816666666667,
687,default,block2,olivia,projective,0.11,8288,hear,34,hear,C,[],51,Yes,,Male,English,Chrome,Linux,938,412,5.730816666666667,
687,default,block2,isabella,projective,0.17,6846,demonstrate,35,demonstrate,C,[],51,Yes,,Male,English,Chrome,Linux,938,412,5.730816666666667,
687,default,block2,pizza,projective,0.98,4788,MC,36,MC,MC,[],51,Yes,,Male,English,Chrome,Linux,938,412,5.730816666666667,
687,default,block2,emma,projective,0.1,3130,suggest,37,suggest,C,[],51,Yes,,Male,English,Chrome,Linux,938,412,5.730816666666667,
687,default,block2,hat,projective,0.92,3369,MC,38,MC,MC,[],51,Yes,,Male,English,Chrome,Linux,938,412,5.730816666666667,
687,default,block2,josh,projective,0.13,3138,admit,39,admit,C,[],51,Yes,,Male,English,Chrome,Linux,938,412,5.730816666666667,
687,default,block2,garage,projective,0.95,3727,MC,40,MC,MC,[],51,Yes,,Male,English,Chrome,Linux,938,412,5.730816666666667,
687,default,block2,kids,projective,0.99,5353,MC,41,MC,MC,[],51,Yes,,Male,English,Chrome,Linux,938,412,5.730816666666667,
687,default,block2,ballet,projective,0.92,4190,MC,42,MC,MC,[],51,Yes,,Male,English,Chrome,Linux,938,412,5.730816666666667,
687,default,block2,owen,projective,0.13,3361,think,43,think,C,[],51,Yes,,Male,English,Chrome,Linux,938,412,5.730816666666667,
687,default,block2,mia,projective,0.09,2834,prove,44,prove,C,[],51,Yes,,Male,English,Chrome,Linux,938,412,5.730816666666667,
687,default,block2,tony,projective,0.11,2589,establish,45,establish,C,[],51,Yes,,Male,English,Chrome,Linux,938,412,5.730816666666667,
687,default,block2,jon,projective,0.17,5302,pretend,46,pretend,C,[],51,Yes,,Male,English,Chrome,Linux,938,412,5.730816666666667,
687,default,block2,jayden,projective,0.13,4689,see,47,see,C,[],51,Yes,,Male,English,Chrome,Linux,938,412,5.730816666666667,
687,default,block2,josie,projective,0.13,5841,reveal,48,reveal,C,[],51,Yes,,Male,English,Chrome,Linux,938,412,5.730816666666667,
687,default,block2,emily,projective,0.09,2177,confess,49,confess,C,[],51,Yes,,Male,English,Chrome,Linux,938,412,5.730816666666667,
687,default,block2,mary,projective,0.14,2186,be_annoyed,50,be_annoyed,C,[],51,Yes,,Male,English,Chrome,Linux,938,412,5.730816666666667,
687,default,block2,danny,projective,0.13,7854,confirm,51,confirm,C,[],51,Yes,,Male,English,Chrome,Linux,938,412,5.730816666666667,
687,default,block2,muffins,projective,0.96,3038,MC,52,MC,MC,[],51,Yes,,Male,English,Chrome,Linux,938,412,5.730816666666667,
687,default,block2,charley,projective,0.13,3978,announce,53,announce,C,[],51,Yes,,Male,English,Chrome,Linux,938,412,5.730816666666667,
687,default,block2,zoe,projective,0.08,2752,discover,54,discover,C,[],51,Yes,,Male,English,Chrome,Linux,938,412,5.730816666666667,
687,default,block2,jackson,projective,0.13,2210,acknowledge,55,acknowledge,C,[],51,Yes,,Male,English,Chrome,Linux,938,412,5.730816666666667,
687,default,block2,sophia,projective,0.11,2492,know,56,know,C,[],51,Yes,,Male,English,Chrome,Linux,938,412,5.730816666666667,
687,default,block2,grace,projective,0.13,2337,say,57,say,C,[],51,Yes,,Male,English,Chrome,Linux,938,412,5.730816666666667,
679,default,block1,owen,ai,0.06,147945,establish,5,establish,C,[],32,Yes,The meaning of some of these statements would depend highly on the context of the situation and the things said before and after them.,Female,English,Firefox,Windows,864,1536,30.4843,
679,default,block1,jon,ai,0.02,8094,know,6,know,C,[],32,Yes,The meaning of some of these statements would depend highly on the context of the situation and the things said before and after them.,Female,English,Firefox,Windows,864,1536,30.4843,
679,default,block1,zoe,ai,0.05,48133,acknowledge,7,acknowledge,C,[],32,Yes,The meaning of some of these statements would depend highly on the context of the situation and the things said before and after them.,Female,English,Firefox,Windows,864,1536,30.4843,
679,default,block1,ballet,ai,1,5760,MC,8,MC,MC,[],32,Yes,The meaning of some of these statements would depend highly on the context of the situation and the things said before and after them.,Female,English,Firefox,Windows,864,1536,30.4843,
679,default,block1,danny,ai,0.04,9120,think,9,think,C,[],32,Yes,The meaning of some of these statements would depend highly on the context of the situation and the things said before and after them.,Female,English,Firefox,Windows,864,1536,30.4843,
679,default,block1,emily,ai,0.05,13962,hear,10,hear,C,[],32,Yes,The meaning of some of these statements would depend highly on the context of the situation and the things said before and after them.,Female,English,Firefox,Windows,864,1536,30.4843,
679,default,block1,charley,ai,0.04,15306,suggest,11,suggest,C,[],32,Yes,The meaning of some of these statements would depend highly on the context of the situation and the things said before and after them.,Female,English,Firefox,Windows,864,1536,30.4843,
679,default,block1,sophia,ai,0.03,4237,reveal,12,reveal,C,[],32,Yes,The meaning of some of these statements would depend highly on the context of the situation and the things said before and after them.,Female,English,Firefox,Windows,864,1536,30.4843,
679,default,block1,olivia,ai,0.95,29306,be_right,13,be_right,C,[],32,Yes,The meaning of some of these statements would depend highly on the context of the situation and the things said before and after them.,Female,English,Firefox,Windows,864,1536,30.4843,
679,default,block1,hat,ai,0.98,3682,MC,14,MC,MC,[],32,Yes,The meaning of some of these statements would depend highly on the context of the situation and the things said before and after them.,Female,English,Firefox,Windows,864,1536,30.4843,
679,default,block1,garage,ai,1,5483,MC,15,MC,MC,[],32,Yes,The meaning of some of these statements would depend highly on the context of the situation and the things said before and after them.,Female,English,Firefox,Windows,864,1536,30.4843,
679,default,block1,josie,ai,0.02,6636,admit,16,admit,C,[],32,Yes,The meaning of some of these statements would depend highly on the context of the situation and the things said before and after them.,Female,English,Firefox,Windows,864,1536,30.4843,
679,default,block1,kids,ai,1,27915,MC,17,MC,MC,[],32,Yes,The meaning of some of these statements would depend highly on the context of the situation and the things said before and after them.,Female,English,Firefox,Windows,864,1536,30.4843,
679,default,block1,josh,ai,0.04,7495,demonstrate,18,demonstrate,C,[],32,Yes,The meaning of some of these statements would depend highly on the context of the situation and the things said before and after them.,Female,English,Firefox,Windows,864,1536,30.4843,
679,default,block1,tony,ai,0.04,11535,confirm,19,confirm,C,[],32,Yes,The meaning of some of these statements would depend highly on the context of the situation and the things said before and after them.,Female,English,Firefox,Windows,864,1536,30.4843,
679,default,block1,julian,ai,0.03,8833,confess,20,confess,C,[],32,Yes,The meaning of some of these statements would depend highly on the context of the situation and the things said before and after them.,Female,English,Firefox,Windows,864,1536,30.4843,
679,default,block1,mary,ai,0.04,4965,pretend,21,pretend,C,[],32,Yes,The meaning of some of these statements would depend highly on the context of the situation and the things said before and after them.,Female,English,Firefox,Windows,864,1536,30.4843,
679,default,block1,isabella,ai,0.11,94437,inform,22,inform,C,[],32,Yes,The meaning of some of these statements would depend highly on the context of the situation and the things said before and after them.,Female,English,Firefox,Windows,864,1536,30.4843,
679,default,block1,grace,ai,0.18,15968,prove,23,prove,C,[],32,Yes,The meaning of some of these statements would depend highly on the context of the situation and the things said before and after them.,Female,English,Firefox,Windows,864,1536,30.4843,
679,default,block1,jayden,ai,0,49363,be_annoyed,24,be_annoyed,C,[],32,Yes,The meaning of some of these statements would depend highly on the context of the situation and the things said before and after them.,Female,English,Firefox,Windows,864,1536,30.4843,
679,default,block1,frank,ai,0,6936,say,25,say,C,[],32,Yes,The meaning of some of these statements would depend highly on the context of the situation and the things said before and after them.,Female,English,Firefox,Windows,864,1536,30.4843,
679,default,block1,jackson,ai,0.09,19131,see,26,see,C,[],32,Yes,The meaning of some of these statements would depend highly on the context of the situation and the things said before and after them.,Female,English,Firefox,Windows,864,1536,30.4843,
679,default,block1,mia,ai,0.3,62129,discover,27,discover,C,[],32,Yes,The meaning of some of these statements would depend highly on the context of the situation and the things said before and after them.,Female,English,Firefox,Windows,864,1536,30.4843,
679,default,block1,pizza,ai,1,16824,MC,28,MC,MC,[],32,Yes,The meaning of some of these statements would depend highly on the context of the situation and the things said before and after them.,Female,English,Firefox,Windows,864,1536,30.4843,
679,default,block1,muffins,ai,1,10677,MC,29,MC,MC,[],32,Yes,The meaning of some of these statements would depend highly on the context of the situation and the things said before and after them.,Female,English,Firefox,Windows,864,1536,30.4843,
679,default,block1,emma,ai,0.02,7040,announce,30,announce,C,[],32,Yes,The meaning of some of these statements would depend highly on the context of the situation and the things said before and after them.,Female,English,Firefox,Windows,864,1536,30.4843,
679,default,block2,grace,projective,0.44,16305,prove,32,prove,C,[],32,Yes,The meaning of some of these statements would depend highly on the context of the situation and the things said before and after them.,Female,English,Firefox,Windows,864,1536,30.4843,
679,default,block2,hat,projective,0.94,30657,MC,33,MC,MC,[],32,Yes,The meaning of some of these statements would depend highly on the context of the situation and the things said before and after them.,Female,English,Firefox,Windows,864,1536,30.4843,
679,default,block2,sophia,projective,0.78,43611,reveal,34,reveal,C,[],32,Yes,The meaning of some of these statements would depend highly on the context of the situation and the things said before and after them.,Female,English,Firefox,Windows,864,1536,30.4843,
679,default,block2,isabella,projective,0.57,37455,inform,35,inform,C,[],32,Yes,The meaning of some of these statements would depend highly on the context of the situation and the things said before and after them.,Female,English,Firefox,Windows,864,1536,30.4843,
679,default,block2,garage,projective,1,39872,MC,36,MC,MC,[],32,Yes,The meaning of some of these statements would depend highly on the context of the situation and the things said before and after them.,Female,English,Firefox,Windows,864,1536,30.4843,
679,default,block2,owen,projective,0.56,10158,establish,37,establish,C,[],32,Yes,The meaning of some of these statements would depend highly on the context of the situation and the things said before and after them.,Female,English,Firefox,Windows,864,1536,30.4843,
679,default,block2,emily,projective,0.49,40736,hear,38,hear,C,[],32,Yes,The meaning of some of these statements would depend highly on the context of the situation and the things said before and after them.,Female,English,Firefox,Windows,864,1536,30.4843,
679,default,block2,mary,projective,0.13,10306,pretend,39,pretend,C,[],32,Yes,The meaning of some of these statements would depend highly on the context of the situation and the things said before and after them.,Female,English,Firefox,Windows,864,1536,30.4843,
679,default,block2,charley,projective,0.21,177868,suggest,40,suggest,C,[],32,Yes,The meaning of some of these statements would depend highly on the context of the situation and the things said before and after them.,Female,English,Firefox,Windows,864,1536,30.4843,
679,default,block2,pizza,projective,1,16132,MC,41,MC,MC,[],32,Yes,The meaning of some of these statements would depend highly on the context of the situation and the things said before and after them.,Female,English,Firefox,Windows,864,1536,30.4843,
679,default,block2,jon,projective,0.6,9402,know,42,know,C,[],32,Yes,The meaning of some of these statements would depend highly on the context of the situation and the things said before and after them.,Female,English,Firefox,Windows,864,1536,30.4843,
679,default,block2,zoe,projective,0.88,11358,acknowledge,43,acknowledge,C,[],32,Yes,The meaning of some of these statements would depend highly on the context of the situation and the things said before and after them.,Female,English,Firefox,Windows,864,1536,30.4843,
679,default,block2,muffins,projective,1,5490,MC,44,MC,MC,[],32,Yes,The meaning of some of these statements would depend highly on the context of the situation and the things said before and after them.,Female,English,Firefox,Windows,864,1536,30.4843,
679,default,block2,olivia,projective,0.61,30832,be_right,45,be_right,C,[],32,Yes,The meaning of some of these statements would depend highly on the context of the situation and the things said before and after them.,Female,English,Firefox,Windows,864,1536,30.4843,
