rt	stimulus	response	trial_type	trial_index	time_elapsed	internal_node_id	slider_start	task	correct	accuracy	participant_id	ctime
19439	<h3>Instructions</h3><p style='text-align:left'>In this experiment, you will read what different people say and rate how natural that sounds. Here's an example from Leah:<br><br><b>Leah:</b> <i>""I have no idea if Mitchell got a poodle. Did Frank suggest that Mitchell wanted to get a poodle?""</i><br> <br> Leah first made a statement and then asked a question. We ask you to rate how natural the question sounds in the context of the statement. You will give your answer on a sliding scale from ""totally unnatural"" to ""totally natural"".<br><br> We start off with four practice examples. Then you will rate 30 examples.<br><br><b> Payment:</b> You will be paid $1.35 to participate in this experiment, which will take about 5 minutes to complete.<br> <p style='text-align:left' font size=""1""> <b> Consent:</b> By clicking on the button below you agree to participate in this experiment, which is conducted by researchers at the University of Stuttgart. You may withdraw from this experiment at any time without penalty. The data collected will be anonymous and confidential. If you have any questions, you may contact the requester through Prolific's platform, or directly at judith.tonhauser@ling.uni-stuttgart.de.</p>	0	html-button-response	0	19496	0.0-0.0	NA	NA	NA	NA	27947dda-46f7-44e8-8806-b1d622a1e6e8	2023-07-14 14:38:31 CEST
3908	<b>First practice example</b><br><br><b> Katia: </b> <i>""I have no idea where Natalie is from. Is Natalie from the USA?""</i>	93	html-slider-response	1	23413	0.0-1.0-0.0	50	practice	TRUE	NA	27947dda-46f7-44e8-8806-b1d622a1e6e8	2023-07-14 14:38:31 CEST
3217	<p style='text-align:left'><b> Good response! </b><br><br><b> Katia: </b> <i>""I have no idea where Natalie is from. Is Natalie from the USA?""</i> <br><br> Katia's question sounds very natural in this context because it is natural for Katia to ask whether Natalie is from the USA if Katia doesn't know where Natalie is from.</p>	0	html-button-response	2	26635	0.0-1.0-2.0-0.0	NA	NA	NA	NA	27947dda-46f7-44e8-8806-b1d622a1e6e8	2023-07-14 14:38:31 CEST
3262	<p style='text-align:left'><b>Here's the second practice example.</b><br><br><b>Xenia: </b><i>""I don't have any sisters. Have you met my sister yet?""</i></p>	0	html-slider-response	3	29903	0.0-2.0-0.0	50	practice	TRUE	NA	27947dda-46f7-44e8-8806-b1d622a1e6e8	2023-07-14 14:38:31 CEST
2077	<p style='text-align:left'><b> Good response! </b><br><br><b>Xenia: </b><i>""I don't have any sisters. Have you met my sister yet?""</i> <br><br> Xenia's question does not sound very natural in this context. Her question implies that she has a sister, but she stated that she doesn't have any sisters.</p>	0	html-button-response	4	31984	0.0-2.0-2.0-0.0	NA	NA	NA	NA	27947dda-46f7-44e8-8806-b1d622a1e6e8	2023-07-14 14:38:31 CEST
3906	<p style='text-align:left'><b>Here's the third practice example.</b><br><br><b>Kerstin: </b> <i>""I am going on vacation to Ireland. Does Fritz realize that Joe is going with me?""</i></p>	87	html-slider-response	5	35895	0.0-3.0-0.0	50	practice	TRUE	NA	27947dda-46f7-44e8-8806-b1d622a1e6e8	2023-07-14 14:38:31 CEST
1901	<p style='text-align:left'><b> Good response! </b><br><br><b>Kerstin: </b> <i>""I am going on vacation to Ireland. Does Fritz realize that Joe is going with me?""</i> <br><br> Kerstin's question sounds very natural in this context.</p>	0	html-button-response	6	37801	0.0-3.0-2.0-0.0	NA	NA	NA	NA	27947dda-46f7-44e8-8806-b1d622a1e6e8	2023-07-14 14:38:31 CEST
4599	<p style='text-align:left'><b> Here's the last practice example.</b><br><br><b>Mirko: </b><i>""I have no idea if Anna has any dogs. Is Samuel glad that Anna fed her dogs?""</i></p>	0	html-slider-response	7	42405	0.0-4.0-0.0	50	practice	TRUE	NA	27947dda-46f7-44e8-8806-b1d622a1e6e8	2023-07-14 14:38:31 CEST
1247	<p style='text-align:left'><b> Good response! </b><br><br><b>Mirko: </b><i>""I have no idea if Anna has any dogs. Is Samuel glad that Anna fed her dogs?""</i> <br><br> Mirko's question does not sound very natural in this context. Mirko's question implies that he thinks that Anna has dogs, but he stated that he doesn't know whether Anna has any dogs.</p>	0	html-button-response	8	43656	0.0-4.0-2.0-0.0	NA	NA	NA	NA	27947dda-46f7-44e8-8806-b1d622a1e6e8	2023-07-14 14:38:31 CEST
5054	<p style='text-align:left'><b>Great, you're ready to go!</b><br>To make sure you are paying attention, we have included some examples for which we know the right answer. If you read the examples carefully, you will definitely get those right.<br></p>	0	html-button-response	9	48715	0.0-5.0	NA	NA	NA	NA	27947dda-46f7-44e8-8806-b1d622a1e6e8	2023-07-14 14:38:31 CEST
8453	<b>Pax:</b><em> ""Hendrick was looking to buy a car. Was Hendrick's car expensive?""</em>	32	html-slider-response	10	57175	0.0-6.0-0.0	50	target	NA	NA	27947dda-46f7-44e8-8806-b1d622a1e6e8	2023-07-14 14:38:31 CEST
4358	<b>Arlen:</b><em> ""I don't know if anyone was playing outside with the kids. Was it Jack who was playing outside with the kids?""</em>	0	html-slider-response	11	61539	0.0-6.0-0.1	50	target	NA	NA	27947dda-46f7-44e8-8806-b1d622a1e6e8	2023-07-14 14:38:31 CEST
3727	<b>Autumn:</b><em> ""I don't know if John was ever reading ""Dune"". Has John recently continued reading ""Dune""?""</em>	0	html-slider-response	12	65270	0.0-6.0-0.2	50	target	NA	NA	27947dda-46f7-44e8-8806-b1d622a1e6e8	2023-07-14 14:38:31 CEST
3762	<b>Michelle:</b><em> ""I don't know if Frank got a cat. Did Melissa prove that Frank got a cat?""</em>	33	html-slider-response	13	69036	0.0-6.0-0.3	50	target	NA	NA	27947dda-46f7-44e8-8806-b1d622a1e6e8	2023-07-14 14:38:31 CEST
4882	<b>Saskia:</b><em> ""I don't know if William was ever interested in history. Is William interested in history again?""</em>	31	html-slider-response	14	73922	0.0-6.0-0.4	50	target	NA	NA	27947dda-46f7-44e8-8806-b1d622a1e6e8	2023-07-14 14:38:31 CEST
6981	<b>Amy:</b><em> ""I don't know if Emily bought a car yesterday. Does Brian know that Emily bought a car yesterday?""</em>	6	html-slider-response	15	80909	0.0-6.0-0.5	50	target	NA	NA	27947dda-46f7-44e8-8806-b1d622a1e6e8	2023-07-14 14:38:31 CEST
3384	<b>Finn:</b><em> ""I don't know if Samantha has a new hat. Does Samantha have a new hat?""</em>	100	html-slider-response	16	84297	0.0-6.0-0.6	50	target	NA	NA	27947dda-46f7-44e8-8806-b1d622a1e6e8	2023-07-14 14:38:31 CEST
4162	<b>Anthony:</b><em> ""I don't know if Tony had a drink last night. Did Rebecca reveal that Tony had a drink last night?""</em>	57	html-slider-response	17	88463	0.0-6.0-0.7	50	target	NA	NA	27947dda-46f7-44e8-8806-b1d622a1e6e8	2023-07-14 14:38:31 CEST
3860	<b>Marlo:</b><em> ""I don't know if this pizza has mushrooms on it. Does this pizza have mushrooms on it?""</em>	100	html-slider-response	18	92327	0.0-6.0-0.8	50	target	NA	NA	27947dda-46f7-44e8-8806-b1d622a1e6e8	2023-07-14 14:38:31 CEST
5184	<b>Diane:</b><em> ""Mia is a nun. Is Ray right that Mia drank 2 cocktails last night?""</em>	38	html-slider-response	19	97516	0.0-6.0-0.9	50	target	NA	NA	27947dda-46f7-44e8-8806-b1d622a1e6e8	2023-07-14 14:38:31 CEST
4649	<b>Erin:</b><em> ""Josh is a 5-year old boy. Did Sharon demonstrate that Josh learned to ride a bike yesterday?""</em>	100	html-slider-response	20	102169	0.0-6.0-0.10	50	target	NA	NA	27947dda-46f7-44e8-8806-b1d622a1e6e8	2023-07-14 14:38:31 CEST
3786	<b>Dorothy:</b><em> ""I don't know if Sophia got a tattoo. Does Ben think that Sophia got a tattoo?""</em>	74	html-slider-response	21	105959	0.0-6.0-0.11	50	target	NA	NA	27947dda-46f7-44e8-8806-b1d622a1e6e8	2023-07-14 14:38:31 CEST
3439	<b>Sandra:</b><em> ""Owen lives in Chicago. Did Cynthia see that Owen shoveled snow last winter?""</em>	87	html-slider-response	22	109402	0.0-6.0-0.12	50	target	NA	NA	27947dda-46f7-44e8-8806-b1d622a1e6e8	2023-07-14 14:38:31 CEST
3180	<b>Larry:</b><em> ""I don't know if Grace visited her sister. Did Andrew suggest that Grace visited her sister?""</em>	85	html-slider-response	23	112591	0.0-6.0-0.13	50	target	NA	NA	27947dda-46f7-44e8-8806-b1d622a1e6e8	2023-07-14 14:38:31 CEST
3383	<b>Kenneth:</b><em> ""I don't know if Olivia sleeps until noon. Did Jerry announce that Olivia sleeps until noon?""</em>	56	html-slider-response	24	115977	0.0-6.0-0.14	50	target	NA	NA	27947dda-46f7-44e8-8806-b1d622a1e6e8	2023-07-14 14:38:31 CEST
3035	<b>Ike:</b><em> ""Mary visited her aunt yesterday. Is Mary's aunt sick?""</em>	86	html-slider-response	25	119016	0.0-6.0-0.15	50	target	NA	NA	27947dda-46f7-44e8-8806-b1d622a1e6e8	2023-07-14 14:38:31 CEST
3168	<b>Patrick:</b><em> ""I don't know if Jon walks to work. Did Ruth hear that Jon walks to work?""</em>	86	html-slider-response	26	122188	0.0-6.0-0.16	50	target	NA	NA	27947dda-46f7-44e8-8806-b1d622a1e6e8	2023-07-14 14:38:31 CEST
4635	<b>Christopher:</b><em> ""I don't know if Jackson ran 10 miles. Did Laura establish that Jackson ran 10 miles?""</em>	35	html-slider-response	27	126827	0.0-6.0-0.17	50	target	NA	NA	27947dda-46f7-44e8-8806-b1d622a1e6e8	2023-07-14 14:38:31 CEST
3889	<b>Ashley:</b><em> ""Mary is taking a prenatal yoga class. Did Patrick acknowledge that Mary is pregnant?""</em>	66	html-slider-response	28	130721	0.0-6.0-0.18	50	target	NA	NA	27947dda-46f7-44e8-8806-b1d622a1e6e8	2023-07-14 14:38:31 CEST
4137	<b>Cici:</b><em> ""I don't know if Stephen was ever in the habit of vaping. Has Stephen recently stopped vaping?""</em>	1	html-slider-response	29	134862	0.0-6.0-0.19	50	target	NA	NA	27947dda-46f7-44e8-8806-b1d622a1e6e8	2023-07-14 14:38:31 CEST
3111	<b>Rebecca:</b><em> ""I don't know if Charley speaks Spanish. Did Anna admit that Charley speaks Spanish?""</em>	45	html-slider-response	30	137977	0.0-6.0-0.20	50	target	NA	NA	27947dda-46f7-44e8-8806-b1d622a1e6e8	2023-07-14 14:38:31 CEST
5072	<b>James:</b><em> ""I don't know if Danny ate the last cupcake. Is Amanda annoyed that Danny ate the last cupcake?""</em>	58	html-slider-response	31	143054	0.0-6.0-0.21	50	target	NA	NA	27947dda-46f7-44e8-8806-b1d622a1e6e8	2023-07-14 14:38:31 CEST
3677	<b>Ryan:</b><em> ""Isabella is a vegetarian. Did Kevin say that Isabella ate a steak on Sunday?""</em>	63	html-slider-response	32	146735	0.0-6.0-0.22	50	target	NA	NA	27947dda-46f7-44e8-8806-b1d622a1e6e8	2023-07-14 14:38:31 CEST
5895	<b>Lisa:</b><em> ""Jayden doesn't have a driver's license. Did Stephanie discover that Jayden rented a car?""</em>	20	html-slider-response	33	152634	0.0-6.0-0.23	50	target	NA	NA	27947dda-46f7-44e8-8806-b1d622a1e6e8	2023-07-14 14:38:31 CEST
3280	<b>Dalton:</b><em> ""I don't know if Svenja plays any sport. Does Svenja also play soccer?""</em>	0	html-slider-response	34	155918	0.0-6.0-0.24	50	target	NA	NA	27947dda-46f7-44e8-8806-b1d622a1e6e8	2023-07-14 14:38:31 CEST
4018	<b>Nicholas:</b><em> ""I don't know if Zoe calculated the tip. Did Tim confess that Zoe calculated the tip?""</em>	65	html-slider-response	35	159941	0.0-6.0-0.25	50	target	NA	NA	27947dda-46f7-44e8-8806-b1d622a1e6e8	2023-07-14 14:38:31 CEST
5563	<b>Jerry:</b><em> ""I don't know if Julian dances salsa. Did Kathleen confirm that Julian dances salsa?""</em>	65	html-slider-response	36	165508	0.0-6.0-0.26	50	target	NA	NA	27947dda-46f7-44e8-8806-b1d622a1e6e8	2023-07-14 14:38:31 CEST
2971	<b>Leia:</b><em> ""I don't know if Ann plays any instrument. Does Ann play the flute, too?""</em>	0	html-slider-response	37	168483	0.0-6.0-0.27	50	target	NA	NA	27947dda-46f7-44e8-8806-b1d622a1e6e8	2023-07-14 14:38:31 CEST
5159	<b>Benjamin:</b><em> ""Emma is in first grade. Did Justin inform Sam that Emma studied on Saturday morning?""</em>	40	html-slider-response	38	173646	0.0-6.0-0.28	50	target	NA	NA	27947dda-46f7-44e8-8806-b1d622a1e6e8	2023-07-14 14:38:31 CEST
5333	<b>Edward:</b><em> ""Josie loves France. Did Scott pretend that Josie went on vacation to France?""</em>	63	html-slider-response	39	178983	0.0-6.0-0.29	50	target	NA	NA	27947dda-46f7-44e8-8806-b1d622a1e6e8	2023-07-14 14:38:31 CEST
7088	NA	{""P0_Q0"":null,""age"":""36"",""gender"":""female"",""language"":""yes"",""amE"":""yes"",""comments"":""""}	survey	40	186519	0.0-7.0	NA	demographics	NA	[]	27947dda-46f7-44e8-8806-b1d622a1e6e8	2023-07-14 14:38:31 CEST
16388	<p>You're done! Thanks for participating! <br>
  The completion code is <b>C1HNU5GM</b>.</p>	0	html-button-response	41	202914	0.0-8.0	NA	NA	NA	NA	27947dda-46f7-44e8-8806-b1d622a1e6e8	2023-07-14 14:38:31 CEST
48314	<h3>Instructions</h3><p style='text-align:left'>In this experiment, you will read what different people say and rate how natural that sounds. Here's an example from Leah:<br><br><b>Leah:</b> <i>""I have no idea if Mitchell got a poodle. Did Frank suggest that Mitchell wanted to get a poodle?""</i><br> <br> Leah first made a statement and then asked a question. We ask you to rate how natural the question sounds in the context of the statement. You will give your answer on a sliding scale from ""totally unnatural"" to ""totally natural"".<br><br> We start off with four practice examples. Then you will rate 30 examples.<br><br><b> Payment:</b> You will be paid $1.35 to participate in this experiment, which will take about 5 minutes to complete.<br> <p style='text-align:left' font size=""1""> <b> Consent:</b> By clicking on the button below you agree to participate in this experiment, which is conducted by researchers at the University of Stuttgart. You may withdraw from this experiment at any time without penalty. The data collected will be anonymous and confidential. If you have any questions, you may contact the requester through Prolific's platform, or directly at judith.tonhauser@ling.uni-stuttgart.de.</p>	0	html-button-response	0	48323	0.0-0.0	NA	NA	NA	NA	6d832c5d-c96e-4adf-9f0b-92a4b71ce430	2023-07-14 14:40:10 CEST
10941	<b>First practice example</b><br><br><b> Katia: </b> <i>""I have no idea where Natalie is from. Is Natalie from the USA?""</i>	100	html-slider-response	1	59266	0.0-1.0-0.0	50	practice	TRUE	NA	6d832c5d-c96e-4adf-9f0b-92a4b71ce430	2023-07-14 14:40:10 CEST
5646	<p style='text-align:left'><b> Good response! </b><br><br><b> Katia: </b> <i>""I have no idea where Natalie is from. Is Natalie from the USA?""</i> <br><br> Katia's question sounds very natural in this context because it is natural for Katia to ask whether Natalie is from the USA if Katia doesn't know where Natalie is from.</p>	0	html-button-response	2	64914	0.0-1.0-2.0-0.0	NA	NA	NA	NA	6d832c5d-c96e-4adf-9f0b-92a4b71ce430	2023-07-14 14:40:10 CEST
5039	<p style='text-align:left'><b>Here's the second practice example.</b><br><br><b>Xenia: </b><i>""I don't have any sisters. Have you met my sister yet?""</i></p>	0	html-slider-response	3	69953	0.0-2.0-0.0	50	practice	TRUE	NA	6d832c5d-c96e-4adf-9f0b-92a4b71ce430	2023-07-14 14:40:10 CEST
2575	<p style='text-align:left'><b> Good response! </b><br><br><b>Xenia: </b><i>""I don't have any sisters. Have you met my sister yet?""</i> <br><br> Xenia's question does not sound very natural in this context. Her question implies that she has a sister, but she stated that she doesn't have any sisters.</p>	0	html-button-response	4	72530	0.0-2.0-2.0-0.0	NA	NA	NA	NA	6d832c5d-c96e-4adf-9f0b-92a4b71ce430	2023-07-14 14:40:10 CEST
7389	<p style='text-align:left'><b>Here's the third practice example.</b><br><br><b>Kerstin: </b> <i>""I am going on vacation to Ireland. Does Fritz realize that Joe is going with me?""</i></p>	75	html-slider-response	5	79922	0.0-3.0-0.0	50	practice	TRUE	NA	6d832c5d-c96e-4adf-9f0b-92a4b71ce430	2023-07-14 14:40:10 CEST
3838	<p style='text-align:left'><b> Good response! </b><br><br><b>Kerstin: </b> <i>""I am going on vacation to Ireland. Does Fritz realize that Joe is going with me?""</i> <br><br> Kerstin's question sounds very natural in this context.</p>	0	html-button-response	6	83762	0.0-3.0-2.0-0.0	NA	NA	NA	NA	6d832c5d-c96e-4adf-9f0b-92a4b71ce430	2023-07-14 14:40:10 CEST
11134	<p style='text-align:left'><b> Here's the last practice example.</b><br><br><b>Mirko: </b><i>""I have no idea if Anna has any dogs. Is Samuel glad that Anna fed her dogs?""</i></p>	3	html-slider-response	7	94897	0.0-4.0-0.0	50	practice	TRUE	NA	6d832c5d-c96e-4adf-9f0b-92a4b71ce430	2023-07-14 14:40:10 CEST
2286	<p style='text-align:left'><b> Good response! </b><br><br><b>Mirko: </b><i>""I have no idea if Anna has any dogs. Is Samuel glad that Anna fed her dogs?""</i> <br><br> Mirko's question does not sound very natural in this context. Mirko's question implies that he thinks that Anna has dogs, but he stated that he doesn't know whether Anna has any dogs.</p>	0	html-button-response	8	97186	0.0-4.0-2.0-0.0	NA	NA	NA	NA	6d832c5d-c96e-4adf-9f0b-92a4b71ce430	2023-07-14 14:40:10 CEST
1887	<p style='text-align:left'><b>Great, you're ready to go!</b><br>To make sure you are paying attention, we have included some examples for which we know the right answer. If you read the examples carefully, you will definitely get those right.<br></p>	0	html-button-response	9	99074	0.0-5.0	NA	NA	NA	NA	6d832c5d-c96e-4adf-9f0b-92a4b71ce430	2023-07-14 14:40:10 CEST
11359	<b>Elizabeth:</b><em> ""I don't know if Olivia sleeps until noon. Is Jerry right that Olivia sleeps until noon?""</em>	71	html-slider-response	10	110434	0.0-6.0-0.0	50	target	NA	NA	6d832c5d-c96e-4adf-9f0b-92a4b71ce430	2023-07-14 14:40:10 CEST
9031	<b>Michelle:</b><em> ""Sophia is a hipster. Is Ben annoyed that Sophia got a tattoo?""</em>	69	html-slider-response	11	119466	0.0-6.0-0.1	50	target	NA	NA	6d832c5d-c96e-4adf-9f0b-92a4b71ce430	2023-07-14 14:40:10 CEST
9695	<b>Eric:</b><em> ""Grace hates her sister. Did Andrew admit that Grace visited her sister?""</em>	46	html-slider-response	12	129162	0.0-6.0-0.2	50	target	NA	NA	6d832c5d-c96e-4adf-9f0b-92a4b71ce430	2023-07-14 14:40:10 CEST
8367	<b>Jason:</b><em> ""I don't know if Danny ate the last cupcake. Did Amanda establish that Danny ate the last cupcake?""</em>	96	html-slider-response	13	137530	0.0-6.0-0.3	50	target	NA	NA	6d832c5d-c96e-4adf-9f0b-92a4b71ce430	2023-07-14 14:40:10 CEST
9559	<b>Erin:</b><em> ""Isabella is a vegetarian. Did Kevin acknowledge that Isabella ate a steak on Sunday?""</em>	46	html-slider-response	14	147090	0.0-6.0-0.4	50	target	NA	NA	6d832c5d-c96e-4adf-9f0b-92a4b71ce430	2023-07-14 14:40:10 CEST
6350	<b>Ike:</b><em> ""Mary visited her aunt yesterday. Is Mary's aunt sick?""</em>	98	html-slider-response	15	153442	0.0-6.0-0.5	50	target	NA	NA	6d832c5d-c96e-4adf-9f0b-92a4b71ce430	2023-07-14 14:40:10 CEST
8888	<b>Cici:</b><em> ""I don't know if Stephen was ever in the habit of vaping. Has Stephen recently stopped vaping?""</em>	25	html-slider-response	16	162329	0.0-6.0-0.6	50	target	NA	NA	6d832c5d-c96e-4adf-9f0b-92a4b71ce430	2023-07-14 14:40:10 CEST
6319	<b>Donna:</b><em> ""I don't know if Mia drank 2 cocktails last night. Does Ray think that Mia drank 2 cocktails last night?""</em>	95	html-slider-response	17	168650	0.0-6.0-0.7	50	target	NA	NA	6d832c5d-c96e-4adf-9f0b-92a4b71ce430	2023-07-14 14:40:10 CEST
5286	<b>Ronald:</b><em> ""I don't know if Jon walks to work. Did Ruth say that Jon walks to work?""</em>	88	html-slider-response	18	173937	0.0-6.0-0.8	50	target	NA	NA	6d832c5d-c96e-4adf-9f0b-92a4b71ce430	2023-07-14 14:40:10 CEST
6624	<b>Arlen:</b><em> ""I don't know if anyone was playing outside with the kids. Was it Jack who was playing outside with the kids?""</em>	3	html-slider-response	19	180562	0.0-6.0-0.9	50	target	NA	NA	6d832c5d-c96e-4adf-9f0b-92a4b71ce430	2023-07-14 14:40:10 CEST
6648	<b>Erin:</b><em> ""I don't know if Emily bought a car yesterday. Did Brian confirm that Emily bought a car yesterday?""</em>	45	html-slider-response	20	187210	0.0-6.0-0.10	50	target	NA	NA	6d832c5d-c96e-4adf-9f0b-92a4b71ce430	2023-07-14 14:40:10 CEST
5128	<b>Tyler:</b><em> ""I don't know if Josie went on vacation to France. Did Scott announce that Josie went on vacation to France?""</em>	47	html-slider-response	21	192339	0.0-6.0-0.11	50	target	NA	NA	6d832c5d-c96e-4adf-9f0b-92a4b71ce430	2023-07-14 14:40:10 CEST
7126	<b>Edward:</b><em> ""I don't know if Julian dances salsa. Did Kathleen discover that Julian dances salsa?""</em>	87	html-slider-response	22	199465	0.0-6.0-0.12	50	target	NA	NA	6d832c5d-c96e-4adf-9f0b-92a4b71ce430	2023-07-14 14:40:10 CEST
5823	<b>Nicholas:</b><em> ""I don't know if Charley speaks Spanish. Did Anna demonstrate that Charley speaks Spanish?""</em>	55	html-slider-response	23	205289	0.0-6.0-0.13	50	target	NA	NA	6d832c5d-c96e-4adf-9f0b-92a4b71ce430	2023-07-14 14:40:10 CEST
6607	<b>Matthew:</b><em> ""Mary is taking a prenatal yoga class. Did Patrick confess that Mary is pregnant?""</em>	53	html-slider-response	24	211897	0.0-6.0-0.14	50	target	NA	NA	6d832c5d-c96e-4adf-9f0b-92a4b71ce430	2023-07-14 14:40:10 CEST
7304	<b>Autumn:</b><em> ""I don't know if John was ever reading ""Dune"". Has John recently continued reading ""Dune""?""</em>	8	html-slider-response	25	219203	0.0-6.0-0.15	50	target	NA	NA	6d832c5d-c96e-4adf-9f0b-92a4b71ce430	2023-07-14 14:40:10 CEST
6110	<b>Kenneth:</b><em> ""I don't know if Josh learned to ride a bike yesterday. Does Sharon know that Josh learned to ride a bike yesterday?""</em>	54	html-slider-response	26	225313	0.0-6.0-0.16	50	target	NA	NA	6d832c5d-c96e-4adf-9f0b-92a4b71ce430	2023-07-14 14:40:10 CEST
7919	<b>Sandra:</b><em> ""Jackson is training for a marathon. Did Laura pretend that Jackson ran 10 miles?""</em>	39	html-slider-response	27	233234	0.0-6.0-0.17	50	target	NA	NA	6d832c5d-c96e-4adf-9f0b-92a4b71ce430	2023-07-14 14:40:10 CEST
7223	<b>David:</b><em> ""Emma is in first grade. Did Justin hear that Emma studied on Saturday morning?""</em>	18	html-slider-response	28	240458	0.0-6.0-0.18	50	target	NA	NA	6d832c5d-c96e-4adf-9f0b-92a4b71ce430	2023-07-14 14:40:10 CEST
5000	<b>Finn:</b><em> ""I don't know if Samantha has a new hat. Does Samantha have a new hat?""</em>	42	html-slider-response	29	245459	0.0-6.0-0.19	50	target	NA	NA	6d832c5d-c96e-4adf-9f0b-92a4b71ce430	2023-07-14 14:40:10 CEST
6191	<b>Thomas:</b><em> ""I don't know if Frank got a cat. Did Melissa inform Sam that Frank got a cat?""</em>	55	html-slider-response	30	251649	0.0-6.0-0.20	50	target	NA	NA	6d832c5d-c96e-4adf-9f0b-92a4b71ce430	2023-07-14 14:40:10 CEST
4240	<b>Leia:</b><em> ""I don't know if Ann plays any instrument. Does Ann play the flute, too?""</em>	1	html-slider-response	31	255890	0.0-6.0-0.21	50	target	NA	NA	6d832c5d-c96e-4adf-9f0b-92a4b71ce430	2023-07-14 14:40:10 CEST
4737	<b>Pax:</b><em> ""Hendrick was looking to buy a car. Was Hendrick's car expensive?""</em>	46	html-slider-response	32	260626	0.0-6.0-0.22	50	target	NA	NA	6d832c5d-c96e-4adf-9f0b-92a4b71ce430	2023-07-14 14:40:10 CEST
5167	<b>Sharon:</b><em> ""I don't know if Tony had a drink last night. Did Rebecca see that Tony had a drink last night?""</em>	39	html-slider-response	33	265794	0.0-6.0-0.23	50	target	NA	NA	6d832c5d-c96e-4adf-9f0b-92a4b71ce430	2023-07-14 14:40:10 CEST
5318	<b>Saskia:</b><em> ""I don't know if William was ever interested in history. Is William interested in history again?""</em>	4	html-slider-response	34	271114	0.0-6.0-0.24	50	target	NA	NA	6d832c5d-c96e-4adf-9f0b-92a4b71ce430	2023-07-14 14:40:10 CEST
7167	<b>Dalton:</b><em> ""I don't know if Svenja plays any sport. Does Svenja also play soccer?""</em>	1	html-slider-response	35	278281	0.0-6.0-0.25	50	target	NA	NA	6d832c5d-c96e-4adf-9f0b-92a4b71ce430	2023-07-14 14:40:10 CEST
4344	<b>Tyler:</b><em> ""I don't know if Owen shoveled snow last winter. Did Cynthia reveal that Owen shoveled snow last winter?""</em>	59	html-slider-response	36	282626	0.0-6.0-0.26	50	target	NA	NA	6d832c5d-c96e-4adf-9f0b-92a4b71ce430	2023-07-14 14:40:10 CEST
4271	<b>Marlo:</b><em> ""I don't know if this pizza has mushrooms on it. Does this pizza have mushrooms on it?""</em>	27	html-slider-response	37	286899	0.0-6.0-0.27	50	target	NA	NA	6d832c5d-c96e-4adf-9f0b-92a4b71ce430	2023-07-14 14:40:10 CEST
5038	<b>Kenneth:</b><em> ""Zoe is a math major. Did Tim suggest that Zoe calculated the tip?""</em>	50	html-slider-response	38	291938	0.0-6.0-0.28	50	target	NA	NA	6d832c5d-c96e-4adf-9f0b-92a4b71ce430	2023-07-14 14:40:10 CEST
6494	<b>Christopher:</b><em> ""Jayden doesn't have a driver's license. Did Stephanie prove that Jayden rented a car?""</em>	54	html-slider-response	39	298434	0.0-6.0-0.29	50	target	NA	NA	6d832c5d-c96e-4adf-9f0b-92a4b71ce430	2023-07-14 14:40:10 CEST
11048	NA	{""P0_Q0"":null,""age"":""58"",""gender"":""male"",""language"":""yes"",""amE"":""yes"",""comments"":""""}	survey	40	309535	0.0-7.0	NA	demographics	NA	[]	6d832c5d-c96e-4adf-9f0b-92a4b71ce430	2023-07-14 14:40:10 CEST
15954	<p>You're done! Thanks for participating! <br>
  The completion code is <b>C1HNU5GM</b>.</p>	0	html-button-response	41	325489	0.0-8.0	NA	NA	NA	NA	6d832c5d-c96e-4adf-9f0b-92a4b71ce430	2023-07-14 14:40:10 CEST
26359	<h3>Instructions</h3><p style='text-align:left'>In this experiment, you will read what different people say and rate how natural that sounds. Here's an example from Leah:<br><br><b>Leah:</b> <i>""I have no idea if Mitchell got a poodle. Did Frank suggest that Mitchell wanted to get a poodle?""</i><br> <br> Leah first made a statement and then asked a question. We ask you to rate how natural the question sounds in the context of the statement. You will give your answer on a sliding scale from ""totally unnatural"" to ""totally natural"".<br><br> We start off with four practice examples. Then you will rate 30 examples.<br><br><b> Payment:</b> You will be paid $1.35 to participate in this experiment, which will take about 5 minutes to complete.<br> <p style='text-align:left' font size=""1""> <b> Consent:</b> By clicking on the button below you agree to participate in this experiment, which is conducted by researchers at the University of Stuttgart. You may withdraw from this experiment at any time without penalty. The data collected will be anonymous and confidential. If you have any questions, you may contact the requester through Prolific's platform, or directly at judith.tonhauser@ling.uni-stuttgart.de.</p>	0	html-button-response	0	26362	0.0-0.0	NA	NA	NA	NA	f4bb5284-f999-490a-82fb-5552c13a2d6a	2023-07-14 14:40:28 CEST
8838	<b>First practice example</b><br><br><b> Katia: </b> <i>""I have no idea where Natalie is from. Is Natalie from the USA?""</i>	100	html-slider-response	1	35200	0.0-1.0-0.0	50	practice	TRUE	NA	f4bb5284-f999-490a-82fb-5552c13a2d6a	2023-07-14 14:40:28 CEST
3062	<p style='text-align:left'><b> Good response! </b><br><br><b> Katia: </b> <i>""I have no idea where Natalie is from. Is Natalie from the USA?""</i> <br><br> Katia's question sounds very natural in this context because it is natural for Katia to ask whether Natalie is from the USA if Katia doesn't know where Natalie is from.</p>	0	html-button-response	2	38263	0.0-1.0-2.0-0.0	NA	NA	NA	NA	f4bb5284-f999-490a-82fb-5552c13a2d6a	2023-07-14 14:40:28 CEST
4213	<p style='text-align:left'><b>Here's the second practice example.</b><br><br><b>Xenia: </b><i>""I don't have any sisters. Have you met my sister yet?""</i></p>	0	html-slider-response	3	42476	0.0-2.0-0.0	50	practice	TRUE	NA	f4bb5284-f999-490a-82fb-5552c13a2d6a	2023-07-14 14:40:28 CEST
8374	<p style='text-align:left'><b> Good response! </b><br><br><b>Xenia: </b><i>""I don't have any sisters. Have you met my sister yet?""</i> <br><br> Xenia's question does not sound very natural in this context. Her question implies that she has a sister, but she stated that she doesn't have any sisters.</p>	0	html-button-response	4	50851	0.0-2.0-2.0-0.0	NA	NA	NA	NA	f4bb5284-f999-490a-82fb-5552c13a2d6a	2023-07-14 14:40:28 CEST
9820	<p style='text-align:left'><b>Here's the third practice example.</b><br><br><b>Kerstin: </b> <i>""I am going on vacation to Ireland. Does Fritz realize that Joe is going with me?""</i></p>	100	html-slider-response	5	60673	0.0-3.0-0.0	50	practice	TRUE	NA	f4bb5284-f999-490a-82fb-5552c13a2d6a	2023-07-14 14:40:28 CEST
1255	<p style='text-align:left'><b> Good response! </b><br><br><b>Kerstin: </b> <i>""I am going on vacation to Ireland. Does Fritz realize that Joe is going with me?""</i> <br><br> Kerstin's question sounds very natural in this context.</p>	0	html-button-response	6	61928	0.0-3.0-2.0-0.0	NA	NA	NA	NA	f4bb5284-f999-490a-82fb-5552c13a2d6a	2023-07-14 14:40:28 CEST
4759	<p style='text-align:left'><b> Here's the last practice example.</b><br><br><b>Mirko: </b><i>""I have no idea if Anna has any dogs. Is Samuel glad that Anna fed her dogs?""</i></p>	0	html-slider-response	7	66687	0.0-4.0-0.0	50	practice	TRUE	NA	f4bb5284-f999-490a-82fb-5552c13a2d6a	2023-07-14 14:40:28 CEST
1960	<p style='text-align:left'><b> Good response! </b><br><br><b>Mirko: </b><i>""I have no idea if Anna has any dogs. Is Samuel glad that Anna fed her dogs?""</i> <br><br> Mirko's question does not sound very natural in this context. Mirko's question implies that he thinks that Anna has dogs, but he stated that he doesn't know whether Anna has any dogs.</p>	0	html-button-response	8	68648	0.0-4.0-2.0-0.0	NA	NA	NA	NA	f4bb5284-f999-490a-82fb-5552c13a2d6a	2023-07-14 14:40:28 CEST
3075	<p style='text-align:left'><b>Great, you're ready to go!</b><br>To make sure you are paying attention, we have included some examples for which we know the right answer. If you read the examples carefully, you will definitely get those right.<br></p>	0	html-button-response	9	71723	0.0-5.0	NA	NA	NA	NA	f4bb5284-f999-490a-82fb-5552c13a2d6a	2023-07-14 14:40:28 CEST
7027	<b>Jennifer:</b><em> ""Jackson is obese. Did Laura reveal that Jackson ran 10 miles?""</em>	11	html-slider-response	10	78751	0.0-6.0-0.0	50	target	NA	NA	f4bb5284-f999-490a-82fb-5552c13a2d6a	2023-07-14 14:40:28 CEST
5674	<b>Anthony:</b><em> ""I don't know if Charley speaks Spanish. Did Anna confirm that Charley speaks Spanish?""</em>	100	html-slider-response	11	84426	0.0-6.0-0.1	50	target	NA	NA	f4bb5284-f999-490a-82fb-5552c13a2d6a	2023-07-14 14:40:28 CEST
13278	<b>Angela:</b><em> ""I don't know if Josie went on vacation to France. Did Scott hear that Josie went on vacation to France?""</em>	0	html-slider-response	12	97704	0.0-6.0-0.2	50	target	NA	NA	f4bb5284-f999-490a-82fb-5552c13a2d6a	2023-07-14 14:40:28 CEST
4680	<b>Kevin:</b><em> ""I don't know if Tony had a drink last night. Did Rebecca admit that Tony had a drink last night?""</em>	100	html-slider-response	13	102385	0.0-6.0-0.3	50	target	NA	NA	f4bb5284-f999-490a-82fb-5552c13a2d6a	2023-07-14 14:40:28 CEST
8075	<b>Carolyn:</b><em> ""I don't know if Mia drank 2 cocktails last night. Does Ray think that Mia drank 2 cocktails last night?""</em>	100	html-slider-response	14	110461	0.0-6.0-0.4	50	target	NA	NA	f4bb5284-f999-490a-82fb-5552c13a2d6a	2023-07-14 14:40:28 CEST
6946	<b>Kevin:</b><em> ""I don't know if Julian dances salsa. Did Kathleen prove that Julian dances salsa?""</em>	58	html-slider-response	15	117408	0.0-6.0-0.5	50	target	NA	NA	f4bb5284-f999-490a-82fb-5552c13a2d6a	2023-07-14 14:40:28 CEST
9171	<b>Donna:</b><em> ""Jayden doesn't have a driver's license. Did Stephanie suggest that Jayden rented a car?""</em>	42	html-slider-response	16	126579	0.0-6.0-0.6	50	target	NA	NA	f4bb5284-f999-490a-82fb-5552c13a2d6a	2023-07-14 14:40:28 CEST
4867	<b>Deborah:</b><em> ""I don't know if Sophia got a tattoo. Did Ben acknowledge that Sophia got a tattoo?""</em>	100	html-slider-response	17	131446	0.0-6.0-0.7	50	target	NA	NA	f4bb5284-f999-490a-82fb-5552c13a2d6a	2023-07-14 14:40:28 CEST
4795	<b>Scott:</b><em> ""Owen lives in Chicago. Did Cynthia confess that Owen shoveled snow last winter?""</em>	0	html-slider-response	18	136242	0.0-6.0-0.8	50	target	NA	NA	f4bb5284-f999-490a-82fb-5552c13a2d6a	2023-07-14 14:40:28 CEST
5230	<b>Timothy:</b><em> ""Emily has been saving for a year. Did Brian establish that Emily bought a car yesterday?""</em>	55	html-slider-response	19	141472	0.0-6.0-0.9	50	target	NA	NA	f4bb5284-f999-490a-82fb-5552c13a2d6a	2023-07-14 14:40:28 CEST
28034	<b>Finn:</b><em> ""I don't know if Samantha has a new hat. Does Samantha have a new hat?""</em>	100	html-slider-response	20	169507	0.0-6.0-0.10	50	target	NA	NA	f4bb5284-f999-490a-82fb-5552c13a2d6a	2023-07-14 14:40:28 CEST
10207	<b>Arlen:</b><em> ""I don't know if anyone was playing outside with the kids. Was it Jack who was playing outside with the kids?""</em>	0	html-slider-response	21	179715	0.0-6.0-0.11	50	target	NA	NA	f4bb5284-f999-490a-82fb-5552c13a2d6a	2023-07-14 14:40:28 CEST
7224	<b>Ike:</b><em> ""Mary visited her aunt yesterday. Is Mary's aunt sick?""</em>	100	html-slider-response	22	186940	0.0-6.0-0.12	50	target	NA	NA	f4bb5284-f999-490a-82fb-5552c13a2d6a	2023-07-14 14:40:28 CEST
8252	<b>Rebecca:</b><em> ""I don't know if Zoe calculated the tip. Does Tim know that Zoe calculated the tip?""</em>	0	html-slider-response	23	195192	0.0-6.0-0.13	50	target	NA	NA	f4bb5284-f999-490a-82fb-5552c13a2d6a	2023-07-14 14:40:28 CEST
7768	<b>Erin:</b><em> ""Frank is allergic to cats. Did Melissa inform Sam that Frank got a cat?""</em>	0	html-slider-response	24	202961	0.0-6.0-0.14	50	target	NA	NA	f4bb5284-f999-490a-82fb-5552c13a2d6a	2023-07-14 14:40:28 CEST
4369	<b>Sharon:</b><em> ""Isabella is from Argentina. Did Kevin see that Isabella ate a steak on Sunday?""</em>	0	html-slider-response	25	207331	0.0-6.0-0.15	50	target	NA	NA	f4bb5284-f999-490a-82fb-5552c13a2d6a	2023-07-14 14:40:28 CEST
2856	<b>Marlo:</b><em> ""I don't know if this pizza has mushrooms on it. Does this pizza have mushrooms on it?""</em>	100	html-slider-response	26	210187	0.0-6.0-0.16	50	target	NA	NA	f4bb5284-f999-490a-82fb-5552c13a2d6a	2023-07-14 14:40:28 CEST
4926	<b>Ryan:</b><em> ""I don't know if Jon walks to work. Did Ruth announce that Jon walks to work?""</em>	100	html-slider-response	27	215114	0.0-6.0-0.17	50	target	NA	NA	f4bb5284-f999-490a-82fb-5552c13a2d6a	2023-07-14 14:40:28 CEST
3727	<b>Edward:</b><em> ""I don't know if Josh learned to ride a bike yesterday. Did Sharon discover that Josh learned to ride a bike yesterday?""</em>	0	html-slider-response	28	218841	0.0-6.0-0.18	50	target	NA	NA	f4bb5284-f999-490a-82fb-5552c13a2d6a	2023-07-14 14:40:28 CEST
7854	<b>Autumn:</b><em> ""I don't know if John was ever reading ""Dune"". Has John recently continued reading ""Dune""?""</em>	0	html-slider-response	29	226696	0.0-6.0-0.19	50	target	NA	NA	f4bb5284-f999-490a-82fb-5552c13a2d6a	2023-07-14 14:40:28 CEST
3903	<b>Saskia:</b><em> ""I don't know if William was ever interested in history. Is William interested in history again?""</em>	0	html-slider-response	30	230600	0.0-6.0-0.20	50	target	NA	NA	f4bb5284-f999-490a-82fb-5552c13a2d6a	2023-07-14 14:40:28 CEST
4257	<b>Cici:</b><em> ""I don't know if Stephen was ever in the habit of vaping. Has Stephen recently stopped vaping?""</em>	0	html-slider-response	31	234857	0.0-6.0-0.21	50	target	NA	NA	f4bb5284-f999-490a-82fb-5552c13a2d6a	2023-07-14 14:40:28 CEST
2769	<b>Laura:</b><em> ""I don't know if Danny ate the last cupcake. Is Amanda annoyed that Danny ate the last cupcake?""</em>	0	html-slider-response	32	237626	0.0-6.0-0.22	50	target	NA	NA	f4bb5284-f999-490a-82fb-5552c13a2d6a	2023-07-14 14:40:28 CEST
7140	<b>Melissa:</b><em> ""Olivia works the third shift. Did Jerry demonstrate that Olivia sleeps until noon?""</em>	18	html-slider-response	33	244767	0.0-6.0-0.23	50	target	NA	NA	f4bb5284-f999-490a-82fb-5552c13a2d6a	2023-07-14 14:40:28 CEST
3108	<b>Leia:</b><em> ""I don't know if Ann plays any instrument. Does Ann play the flute, too?""</em>	0	html-slider-response	34	247876	0.0-6.0-0.24	50	target	NA	NA	f4bb5284-f999-490a-82fb-5552c13a2d6a	2023-07-14 14:40:28 CEST
3951	<b>Pax:</b><em> ""Hendrick was looking to buy a car. Was Hendrick's car expensive?""</em>	100	html-slider-response	35	251827	0.0-6.0-0.25	50	target	NA	NA	f4bb5284-f999-490a-82fb-5552c13a2d6a	2023-07-14 14:40:28 CEST
21022	<b>Ashley:</b><em> ""I don't know if Grace visited her sister. Is Andrew right that Grace visited her sister?""</em>	87	html-slider-response	36	272850	0.0-6.0-0.26	50	target	NA	NA	f4bb5284-f999-490a-82fb-5552c13a2d6a	2023-07-14 14:40:28 CEST
7015	<b>Eric:</b><em> ""Emma is in first grade. Did Justin say that Emma studied on Saturday morning?""</em>	13	html-slider-response	37	279865	0.0-6.0-0.27	50	target	NA	NA	f4bb5284-f999-490a-82fb-5552c13a2d6a	2023-07-14 14:40:28 CEST
18529	<b>Dalton:</b><em> ""I don't know if Svenja plays any sport. Does Svenja also play soccer?""</em>	0	html-slider-response	38	298394	0.0-6.0-0.28	50	target	NA	NA	f4bb5284-f999-490a-82fb-5552c13a2d6a	2023-07-14 14:40:28 CEST
5303	<b>Fran:</b><em> ""I don't know if Mary is pregnant. Did Patrick pretend that Mary is pregnant?""</em>	40	html-slider-response	39	303698	0.0-6.0-0.29	50	target	NA	NA	f4bb5284-f999-490a-82fb-5552c13a2d6a	2023-07-14 14:40:28 CEST
10361	NA	{""P0_Q0"":null,""age"":""28"",""gender"":""male"",""language"":""yes"",""amE"":""yes"",""comments"":""""}	survey	40	314089	0.0-7.0	NA	demographics	NA	[]	f4bb5284-f999-490a-82fb-5552c13a2d6a	2023-07-14 14:40:28 CEST
3032	<p>You're done! Thanks for participating! <br>
  The completion code is <b>C1HNU5GM</b>.</p>	0	html-button-response	41	317122	0.0-8.0	NA	NA	NA	NA	f4bb5284-f999-490a-82fb-5552c13a2d6a	2023-07-14 14:40:28 CEST
17148	<h3>Instructions</h3><p style='text-align:left'>In this experiment, you will read what different people say and rate how natural that sounds. Here's an example from Leah:<br><br><b>Leah:</b> <i>""I have no idea if Mitchell got a poodle. Did Frank suggest that Mitchell wanted to get a poodle?""</i><br> <br> Leah first made a statement and then asked a question. We ask you to rate how natural the question sounds in the context of the statement. You will give your answer on a sliding scale from ""totally unnatural"" to ""totally natural"".<br><br> We start off with four practice examples. Then you will rate 30 examples.<br><br><b> Payment:</b> You will be paid $1.35 to participate in this experiment, which will take about 5 minutes to complete.<br> <p style='text-align:left' font size=""1""> <b> Consent:</b> By clicking on the button below you agree to participate in this experiment, which is conducted by researchers at the University of Stuttgart. You may withdraw from this experiment at any time without penalty. The data collected will be anonymous and confidential. If you have any questions, you may contact the requester through Prolific's platform, or directly at judith.tonhauser@ling.uni-stuttgart.de.</p>	0	html-button-response	0	17153	0.0-0.0	NA	NA	NA	NA	e4bed497-2205-4db2-b16b-b55ce3d72703	2023-07-14 14:40:53 CEST
7719	<b>First practice example</b><br><br><b> Katia: </b> <i>""I have no idea where Natalie is from. Is Natalie from the USA?""</i>	100	html-slider-response	1	24873	0.0-1.0-0.0	50	practice	TRUE	NA	e4bed497-2205-4db2-b16b-b55ce3d72703	2023-07-14 14:40:53 CEST
6711	<p style='text-align:left'><b> Good response! </b><br><br><b> Katia: </b> <i>""I have no idea where Natalie is from. Is Natalie from the USA?""</i> <br><br> Katia's question sounds very natural in this context because it is natural for Katia to ask whether Natalie is from the USA if Katia doesn't know where Natalie is from.</p>	0	html-button-response	2	31585	0.0-1.0-2.0-0.0	NA	NA	NA	NA	e4bed497-2205-4db2-b16b-b55ce3d72703	2023-07-14 14:40:53 CEST
4095	<p style='text-align:left'><b>Here's the second practice example.</b><br><br><b>Xenia: </b><i>""I don't have any sisters. Have you met my sister yet?""</i></p>	0	html-slider-response	3	35681	0.0-2.0-0.0	50	practice	TRUE	NA	e4bed497-2205-4db2-b16b-b55ce3d72703	2023-07-14 14:40:53 CEST
1919	<p style='text-align:left'><b> Good response! </b><br><br><b>Xenia: </b><i>""I don't have any sisters. Have you met my sister yet?""</i> <br><br> Xenia's question does not sound very natural in this context. Her question implies that she has a sister, but she stated that she doesn't have any sisters.</p>	0	html-button-response	4	37601	0.0-2.0-2.0-0.0	NA	NA	NA	NA	e4bed497-2205-4db2-b16b-b55ce3d72703	2023-07-14 14:40:53 CEST
7135	<p style='text-align:left'><b>Here's the third practice example.</b><br><br><b>Kerstin: </b> <i>""I am going on vacation to Ireland. Does Fritz realize that Joe is going with me?""</i></p>	100	html-slider-response	5	44737	0.0-3.0-0.0	50	practice	TRUE	NA	e4bed497-2205-4db2-b16b-b55ce3d72703	2023-07-14 14:40:53 CEST
1807	<p style='text-align:left'><b> Good response! </b><br><br><b>Kerstin: </b> <i>""I am going on vacation to Ireland. Does Fritz realize that Joe is going with me?""</i> <br><br> Kerstin's question sounds very natural in this context.</p>	0	html-button-response	6	46545	0.0-3.0-2.0-0.0	NA	NA	NA	NA	e4bed497-2205-4db2-b16b-b55ce3d72703	2023-07-14 14:40:53 CEST
7775	<p style='text-align:left'><b> Here's the last practice example.</b><br><br><b>Mirko: </b><i>""I have no idea if Anna has any dogs. Is Samuel glad that Anna fed her dogs?""</i></p>	0	html-slider-response	7	54321	0.0-4.0-0.0	50	practice	TRUE	NA	e4bed497-2205-4db2-b16b-b55ce3d72703	2023-07-14 14:40:53 CEST
2559	<p style='text-align:left'><b> Good response! </b><br><br><b>Mirko: </b><i>""I have no idea if Anna has any dogs. Is Samuel glad that Anna fed her dogs?""</i> <br><br> Mirko's question does not sound very natural in this context. Mirko's question implies that he thinks that Anna has dogs, but he stated that he doesn't know whether Anna has any dogs.</p>	0	html-button-response	8	56881	0.0-4.0-2.0-0.0	NA	NA	NA	NA	e4bed497-2205-4db2-b16b-b55ce3d72703	2023-07-14 14:40:53 CEST
6159	<p style='text-align:left'><b>Great, you're ready to go!</b><br>To make sure you are paying attention, we have included some examples for which we know the right answer. If you read the examples carefully, you will definitely get those right.<br></p>	0	html-button-response	9	63041	0.0-5.0	NA	NA	NA	NA	e4bed497-2205-4db2-b16b-b55ce3d72703	2023-07-14 14:40:53 CEST
24367	<b>Carol:</b><em> ""Olivia has two small children. Did Jerry discover that Olivia sleeps until noon?""</em>	100	html-slider-response	10	87409	0.0-6.0-0.0	50	target	NA	NA	e4bed497-2205-4db2-b16b-b55ce3d72703	2023-07-14 14:40:53 CEST
19582	<b>Ashley:</b><em> ""I don't know if Emma studied on Saturday morning. Did Justin admit that Emma studied on Saturday morning?""</em>	100	html-slider-response	11	106993	0.0-6.0-0.1	50	target	NA	NA	e4bed497-2205-4db2-b16b-b55ce3d72703	2023-07-14 14:40:53 CEST
22511	<b>Paul:</b><em> ""I don't know if Josh learned to ride a bike yesterday. Did Sharon confess that Josh learned to ride a bike yesterday?""</em>	100	html-slider-response	12	129505	0.0-6.0-0.2	50	target	NA	NA	e4bed497-2205-4db2-b16b-b55ce3d72703	2023-07-14 14:40:53 CEST
22687	<b>Michelle:</b><em> ""Grace hates her sister. Did Andrew pretend that Grace visited her sister?""</em>	68	html-slider-response	13	152193	0.0-6.0-0.3	50	target	NA	NA	e4bed497-2205-4db2-b16b-b55ce3d72703	2023-07-14 14:40:53 CEST
10479	<b>Saskia:</b><em> ""I don't know if William was ever interested in history. Is William interested in history again?""</em>	0	html-slider-response	14	162673	0.0-6.0-0.4	50	target	NA	NA	e4bed497-2205-4db2-b16b-b55ce3d72703	2023-07-14 14:40:53 CEST
7887	<b>Arlen:</b><em> ""I don't know if anyone was playing outside with the kids. Was it Jack who was playing outside with the kids?""</em>	0	html-slider-response	15	170561	0.0-6.0-0.5	50	target	NA	NA	e4bed497-2205-4db2-b16b-b55ce3d72703	2023-07-14 14:40:53 CEST
8103	<b>Sharon:</b><em> ""I don't know if Owen shoveled snow last winter. Did Cynthia hear that Owen shoveled snow last winter?""</em>	100	html-slider-response	16	178665	0.0-6.0-0.6	50	target	NA	NA	e4bed497-2205-4db2-b16b-b55ce3d72703	2023-07-14 14:40:53 CEST
7303	<b>Pax:</b><em> ""Hendrick was looking to buy a car. Was Hendrick's car expensive?""</em>	0	html-slider-response	17	185969	0.0-6.0-0.7	50	target	NA	NA	e4bed497-2205-4db2-b16b-b55ce3d72703	2023-07-14 14:40:53 CEST
7743	<b>Karen:</b><em> ""I don't know if Emily bought a car yesterday. Did Brian reveal that Emily bought a car yesterday?""</em>	0	html-slider-response	18	193713	0.0-6.0-0.8	50	target	NA	NA	e4bed497-2205-4db2-b16b-b55ce3d72703	2023-07-14 14:40:53 CEST
8623	<b>Gregory:</b><em> ""Julian is Cuban. Did Kathleen say that Julian dances salsa?""</em>	100	html-slider-response	19	202337	0.0-6.0-0.9	50	target	NA	NA	e4bed497-2205-4db2-b16b-b55ce3d72703	2023-07-14 14:40:53 CEST
7639	<b>Patrick:</b><em> ""I don't know if Jon walks to work. Did Ruth demonstrate that Jon walks to work?""</em>	4	html-slider-response	20	209977	0.0-6.0-0.10	50	target	NA	NA	e4bed497-2205-4db2-b16b-b55ce3d72703	2023-07-14 14:40:53 CEST
6063	<b>Carolyn:</b><em> ""Frank has always wanted a pet. Did Melissa announce that Frank got a cat?""</em>	100	html-slider-response	21	216040	0.0-6.0-0.11	50	target	NA	NA	e4bed497-2205-4db2-b16b-b55ce3d72703	2023-07-14 14:40:53 CEST
9584	<b>Carolyn:</b><em> ""I don't know if Charley speaks Spanish. Did Anna acknowledge that Charley speaks Spanish?""</em>	100	html-slider-response	22	225625	0.0-6.0-0.12	50	target	NA	NA	e4bed497-2205-4db2-b16b-b55ce3d72703	2023-07-14 14:40:53 CEST
8080	<b>Shirley:</b><em> ""I don't know if Mia drank 2 cocktails last night. Did Ray prove that Mia drank 2 cocktails last night?""</em>	91	html-slider-response	23	233705	0.0-6.0-0.13	50	target	NA	NA	e4bed497-2205-4db2-b16b-b55ce3d72703	2023-07-14 14:40:53 CEST
6815	<b>Thomas:</b><em> ""Zoe is 5 years old. Did Tim inform Sam that Zoe calculated the tip?""</em>	0	html-slider-response	24	240521	0.0-6.0-0.14	50	target	NA	NA	e4bed497-2205-4db2-b16b-b55ce3d72703	2023-07-14 14:40:53 CEST
12911	<b>Angela:</b><em> ""Tony really likes to party with his friends. Did Rebecca establish that Tony had a drink last night?""</em>	67	html-slider-response	25	253433	0.0-6.0-0.15	50	target	NA	NA	e4bed497-2205-4db2-b16b-b55ce3d72703	2023-07-14 14:40:53 CEST
6272	<b>Ike:</b><em> ""Mary visited her aunt yesterday. Is Mary's aunt sick?""</em>	100	html-slider-response	26	259705	0.0-6.0-0.16	50	target	NA	NA	e4bed497-2205-4db2-b16b-b55ce3d72703	2023-07-14 14:40:53 CEST
7215	<b>Jason:</b><em> ""I don't know if Jayden rented a car. Does Stephanie know that Jayden rented a car?""</em>	0	html-slider-response	27	266921	0.0-6.0-0.17	50	target	NA	NA	e4bed497-2205-4db2-b16b-b55ce3d72703	2023-07-14 14:40:53 CEST
8567	<b>Marlo:</b><em> ""I don't know if this pizza has mushrooms on it. Does this pizza have mushrooms on it?""</em>	100	html-slider-response	28	275489	0.0-6.0-0.18	50	target	NA	NA	e4bed497-2205-4db2-b16b-b55ce3d72703	2023-07-14 14:40:53 CEST
8743	<b>Autumn:</b><em> ""I don't know if John was ever reading ""Dune"". Has John recently continued reading ""Dune""?""</em>	0	html-slider-response	29	284233	0.0-6.0-0.19	50	target	NA	NA	e4bed497-2205-4db2-b16b-b55ce3d72703	2023-07-14 14:40:53 CEST
10103	<b>Michelle:</b><em> ""I don't know if Mary is pregnant. Did Patrick see that Mary is pregnant?""</em>	100	html-slider-response	30	294337	0.0-6.0-0.20	50	target	NA	NA	e4bed497-2205-4db2-b16b-b55ce3d72703	2023-07-14 14:40:53 CEST
5839	<b>Finn:</b><em> ""I don't know if Samantha has a new hat. Does Samantha have a new hat?""</em>	100	html-slider-response	31	300177	0.0-6.0-0.21	50	target	NA	NA	e4bed497-2205-4db2-b16b-b55ce3d72703	2023-07-14 14:40:53 CEST
6615	<b>George:</b><em> ""I don't know if Sophia got a tattoo. Did Ben suggest that Sophia got a tattoo?""</em>	100	html-slider-response	32	306793	0.0-6.0-0.22	50	target	NA	NA	e4bed497-2205-4db2-b16b-b55ce3d72703	2023-07-14 14:40:53 CEST
6399	<b>Cici:</b><em> ""I don't know if Stephen was ever in the habit of vaping. Has Stephen recently stopped vaping?""</em>	0	html-slider-response	33	313193	0.0-6.0-0.23	50	target	NA	NA	e4bed497-2205-4db2-b16b-b55ce3d72703	2023-07-14 14:40:53 CEST
7432	<b>Dorothy:</b><em> ""Danny loves cake. Does Amanda think that Danny ate the last cupcake?""</em>	100	html-slider-response	34	320625	0.0-6.0-0.24	50	target	NA	NA	e4bed497-2205-4db2-b16b-b55ce3d72703	2023-07-14 14:40:53 CEST
5983	<b>Laura:</b><em> ""I don't know if Jackson ran 10 miles. Did Laura confirm that Jackson ran 10 miles?""</em>	100	html-slider-response	35	326609	0.0-6.0-0.25	50	target	NA	NA	e4bed497-2205-4db2-b16b-b55ce3d72703	2023-07-14 14:40:53 CEST
7855	<b>Nicholas:</b><em> ""Isabella is a vegetarian. Is Kevin annoyed that Isabella ate a steak on Sunday?""</em>	0	html-slider-response	36	334465	0.0-6.0-0.26	50	target	NA	NA	e4bed497-2205-4db2-b16b-b55ce3d72703	2023-07-14 14:40:53 CEST
7551	<b>Kevin:</b><em> ""I don't know if Josie went on vacation to France. Is Scott right that Josie went on vacation to France?""</em>	100	html-slider-response	37	342017	0.0-6.0-0.27	50	target	NA	NA	e4bed497-2205-4db2-b16b-b55ce3d72703	2023-07-14 14:40:53 CEST
5479	<b>Leia:</b><em> ""I don't know if Ann plays any instrument. Does Ann play the flute, too?""</em>	0	html-slider-response	38	347497	0.0-6.0-0.28	50	target	NA	NA	e4bed497-2205-4db2-b16b-b55ce3d72703	2023-07-14 14:40:53 CEST
3711	<b>Dalton:</b><em> ""I don't know if Svenja plays any sport. Does Svenja also play soccer?""</em>	0	html-slider-response	39	351209	0.0-6.0-0.29	50	target	NA	NA	e4bed497-2205-4db2-b16b-b55ce3d72703	2023-07-14 14:40:53 CEST
14786	NA	{""P0_Q0"":null,""age"":""68"",""gender"":""male"",""language"":""yes"",""amE"":""yes"",""comments"":""none""}	survey	40	366037	0.0-7.0	NA	demographics	NA	[]	e4bed497-2205-4db2-b16b-b55ce3d72703	2023-07-14 14:40:53 CEST
6867	<p>You're done! Thanks for participating! <br>
  The completion code is <b>C1HNU5GM</b>.</p>	0	html-button-response	41	372905	0.0-8.0	NA	NA	NA	NA	e4bed497-2205-4db2-b16b-b55ce3d72703	2023-07-14 14:40:53 CEST
4540	<h3>Instructions</h3><p style='text-align:left'>In this experiment, you will read what different people say and rate how natural that sounds. Here's an example from Leah:<br><br><b>Leah:</b> <i>""I have no idea if Mitchell got a poodle. Did Frank suggest that Mitchell wanted to get a poodle?""</i><br> <br> Leah first made a statement and then asked a question. We ask you to rate how natural the question sounds in the context of the statement. You will give your answer on a sliding scale from ""totally unnatural"" to ""totally natural"".<br><br> We start off with four practice examples. Then you will rate 30 examples.<br><br><b> Payment:</b> You will be paid $1.35 to participate in this experiment, which will take about 5 minutes to complete.<br> <p style='text-align:left' font size=""1""> <b> Consent:</b> By clicking on the button below you agree to participate in this experiment, which is conducted by researchers at the University of Stuttgart. You may withdraw from this experiment at any time without penalty. The data collected will be anonymous and confidential. If you have any questions, you may contact the requester through Prolific's platform, or directly at judith.tonhauser@ling.uni-stuttgart.de.</p>	0	html-button-response	0	4554	0.0-0.0	NA	NA	NA	NA	a6eb2cd9-4440-4d38-9132-edafdecad185	2023-07-14 14:40:59 CEST
11025	<b>First practice example</b><br><br><b> Katia: </b> <i>""I have no idea where Natalie is from. Is Natalie from the USA?""</i>	71	html-slider-response	1	15583	0.0-1.0-0.0	50	practice	TRUE	NA	a6eb2cd9-4440-4d38-9132-edafdecad185	2023-07-14 14:40:59 CEST
8703	<p style='text-align:left'><b> Good response! </b><br><br><b> Katia: </b> <i>""I have no idea where Natalie is from. Is Natalie from the USA?""</i> <br><br> Katia's question sounds very natural in this context because it is natural for Katia to ask whether Natalie is from the USA if Katia doesn't know where Natalie is from.</p>	0	html-button-response	2	24288	0.0-1.0-2.0-0.0	NA	NA	NA	NA	a6eb2cd9-4440-4d38-9132-edafdecad185	2023-07-14 14:40:59 CEST
7113	<p style='text-align:left'><b>Here's the second practice example.</b><br><br><b>Xenia: </b><i>""I don't have any sisters. Have you met my sister yet?""</i></p>	0	html-slider-response	3	31404	0.0-2.0-0.0	50	practice	TRUE	NA	a6eb2cd9-4440-4d38-9132-edafdecad185	2023-07-14 14:40:59 CEST
3101	<p style='text-align:left'><b> Good response! </b><br><br><b>Xenia: </b><i>""I don't have any sisters. Have you met my sister yet?""</i> <br><br> Xenia's question does not sound very natural in this context. Her question implies that she has a sister, but she stated that she doesn't have any sisters.</p>	0	html-button-response	4	34509	0.0-2.0-2.0-0.0	NA	NA	NA	NA	a6eb2cd9-4440-4d38-9132-edafdecad185	2023-07-14 14:40:59 CEST
8766	<p style='text-align:left'><b>Here's the third practice example.</b><br><br><b>Kerstin: </b> <i>""I am going on vacation to Ireland. Does Fritz realize that Joe is going with me?""</i></p>	100	html-slider-response	5	43279	0.0-3.0-0.0	50	practice	TRUE	NA	a6eb2cd9-4440-4d38-9132-edafdecad185	2023-07-14 14:40:59 CEST
2682	<p style='text-align:left'><b> Good response! </b><br><br><b>Kerstin: </b> <i>""I am going on vacation to Ireland. Does Fritz realize that Joe is going with me?""</i> <br><br> Kerstin's question sounds very natural in this context.</p>	0	html-button-response	6	45964	0.0-3.0-2.0-0.0	NA	NA	NA	NA	a6eb2cd9-4440-4d38-9132-edafdecad185	2023-07-14 14:40:59 CEST
7469	<p style='text-align:left'><b> Here's the last practice example.</b><br><br><b>Mirko: </b><i>""I have no idea if Anna has any dogs. Is Samuel glad that Anna fed her dogs?""</i></p>	0	html-slider-response	7	53435	0.0-4.0-0.0	50	practice	TRUE	NA	a6eb2cd9-4440-4d38-9132-edafdecad185	2023-07-14 14:40:59 CEST
2524	<p style='text-align:left'><b> Good response! </b><br><br><b>Mirko: </b><i>""I have no idea if Anna has any dogs. Is Samuel glad that Anna fed her dogs?""</i> <br><br> Mirko's question does not sound very natural in this context. Mirko's question implies that he thinks that Anna has dogs, but he stated that he doesn't know whether Anna has any dogs.</p>	0	html-button-response	8	55962	0.0-4.0-2.0-0.0	NA	NA	NA	NA	a6eb2cd9-4440-4d38-9132-edafdecad185	2023-07-14 14:40:59 CEST
6981	<p style='text-align:left'><b>Great, you're ready to go!</b><br>To make sure you are paying attention, we have included some examples for which we know the right answer. If you read the examples carefully, you will definitely get those right.<br></p>	0	html-button-response	9	62944	0.0-5.0	NA	NA	NA	NA	a6eb2cd9-4440-4d38-9132-edafdecad185	2023-07-14 14:40:59 CEST
8554	<b>Kevin:</b><em> ""Josie loves France. Did Scott reveal that Josie went on vacation to France?""</em>	100	html-slider-response	10	71503	0.0-6.0-0.0	50	target	NA	NA	a6eb2cd9-4440-4d38-9132-edafdecad185	2023-07-14 14:40:59 CEST
7391	<b>Sharon:</b><em> ""Owen lives in New Orleans. Did Cynthia announce that Owen shoveled snow last winter?""</em>	11	html-slider-response	11	78898	0.0-6.0-0.1	50	target	NA	NA	a6eb2cd9-4440-4d38-9132-edafdecad185	2023-07-14 14:40:59 CEST
8550	<b>Leia:</b><em> ""I don't know if Ann plays any instrument. Does Ann play the flute, too?""</em>	77	html-slider-response	12	87451	0.0-6.0-0.2	50	target	NA	NA	a6eb2cd9-4440-4d38-9132-edafdecad185	2023-07-14 14:40:59 CEST
6136	<b>Pax:</b><em> ""Hendrick was looking to buy a car. Was Hendrick's car expensive?""</em>	100	html-slider-response	13	93591	0.0-6.0-0.3	50	target	NA	NA	a6eb2cd9-4440-4d38-9132-edafdecad185	2023-07-14 14:40:59 CEST
7078	<b>Kenneth:</b><em> ""Tony really likes to party with his friends. Did Rebecca discover that Tony had a drink last night?""</em>	100	html-slider-response	14	100672	0.0-6.0-0.4	50	target	NA	NA	a6eb2cd9-4440-4d38-9132-edafdecad185	2023-07-14 14:40:59 CEST
7331	<b>Cynthia:</b><em> ""Olivia has two small children. Did Jerry confirm that Olivia sleeps until noon?""</em>	22	html-slider-response	15	108005	0.0-6.0-0.5	50	target	NA	NA	a6eb2cd9-4440-4d38-9132-edafdecad185	2023-07-14 14:40:59 CEST
8792	<b>Jonathan:</b><em> ""I don't know if Jon walks to work. Is Ruth right that Jon walks to work?""</em>	100	html-slider-response	16	116799	0.0-6.0-0.6	50	target	NA	NA	a6eb2cd9-4440-4d38-9132-edafdecad185	2023-07-14 14:40:59 CEST
12313	<b>Benjamin:</b><em> ""I don't know if Emma studied on Saturday morning. Did Justin demonstrate that Emma studied on Saturday morning?""</em>	100	html-slider-response	17	129119	0.0-6.0-0.7	50	target	NA	NA	a6eb2cd9-4440-4d38-9132-edafdecad185	2023-07-14 14:40:59 CEST
7454	<b>Finn:</b><em> ""I don't know if Samantha has a new hat. Does Samantha have a new hat?""</em>	100	html-slider-response	18	136575	0.0-6.0-0.8	50	target	NA	NA	a6eb2cd9-4440-4d38-9132-edafdecad185	2023-07-14 14:40:59 CEST
11237	<b>Lisa:</b><em> ""I don't know if Isabella ate a steak on Sunday. Did Kevin say that Isabella ate a steak on Sunday?""</em>	100	html-slider-response	19	147815	0.0-6.0-0.9	50	target	NA	NA	a6eb2cd9-4440-4d38-9132-edafdecad185	2023-07-14 14:40:59 CEST
5829	<b>Ike:</b><em> ""Mary visited her aunt yesterday. Is Mary's aunt sick?""</em>	100	html-slider-response	20	153646	0.0-6.0-0.10	50	target	NA	NA	a6eb2cd9-4440-4d38-9132-edafdecad185	2023-07-14 14:40:59 CEST
9689	<b>Sharon:</b><em> ""I don't know if Frank got a cat. Is Melissa annoyed that Frank got a cat?""</em>	100	html-slider-response	21	163338	0.0-6.0-0.11	50	target	NA	NA	a6eb2cd9-4440-4d38-9132-edafdecad185	2023-07-14 14:40:59 CEST
8139	<b>Jennifer:</b><em> ""I don't know if Josh learned to ride a bike yesterday. Did Sharon acknowledge that Josh learned to ride a bike yesterday?""</em>	100	html-slider-response	22	171479	0.0-6.0-0.12	50	target	NA	NA	a6eb2cd9-4440-4d38-9132-edafdecad185	2023-07-14 14:40:59 CEST
6099	<b>Dalton:</b><em> ""I don't know if Svenja plays any sport. Does Svenja also play soccer?""</em>	100	html-slider-response	23	177582	0.0-6.0-0.13	50	target	NA	NA	a6eb2cd9-4440-4d38-9132-edafdecad185	2023-07-14 14:40:59 CEST
9164	<b>Shirley:</b><em> ""Zoe is a math major. Did Tim pretend that Zoe calculated the tip?""</em>	94	html-slider-response	24	186749	0.0-6.0-0.14	50	target	NA	NA	a6eb2cd9-4440-4d38-9132-edafdecad185	2023-07-14 14:40:59 CEST
5633	<b>Marlo:</b><em> ""I don't know if this pizza has mushrooms on it. Does this pizza have mushrooms on it?""</em>	100	html-slider-response	25	192383	0.0-6.0-0.15	50	target	NA	NA	a6eb2cd9-4440-4d38-9132-edafdecad185	2023-07-14 14:40:59 CEST
6629	<b>Michelle:</b><em> ""I don't know if Grace visited her sister. Did Andrew hear that Grace visited her sister?""</em>	100	html-slider-response	26	199014	0.0-6.0-0.16	50	target	NA	NA	a6eb2cd9-4440-4d38-9132-edafdecad185	2023-07-14 14:40:59 CEST
5848	<b>Laura:</b><em> ""I don't know if Emily bought a car yesterday. Did Brian admit that Emily bought a car yesterday?""</em>	100	html-slider-response	27	204865	0.0-6.0-0.17	50	target	NA	NA	a6eb2cd9-4440-4d38-9132-edafdecad185	2023-07-14 14:40:59 CEST
7111	<b>Margaret:</b><em> ""Julian is German. Does Kathleen think that Julian dances salsa?""</em>	0	html-slider-response	28	211978	0.0-6.0-0.18	50	target	NA	NA	a6eb2cd9-4440-4d38-9132-edafdecad185	2023-07-14 14:40:59 CEST
8204	<b>Kevin:</b><em> ""I don't know if Mia drank 2 cocktails last night. Does Ray know that Mia drank 2 cocktails last night?""</em>	100	html-slider-response	29	220185	0.0-6.0-0.19	50	target	NA	NA	a6eb2cd9-4440-4d38-9132-edafdecad185	2023-07-14 14:40:59 CEST
6998	<b>Jonathan:</b><em> ""Mary is a middle school student. Did Patrick prove that Mary is pregnant?""</em>	15	html-slider-response	30	227185	0.0-6.0-0.20	50	target	NA	NA	a6eb2cd9-4440-4d38-9132-edafdecad185	2023-07-14 14:40:59 CEST
11625	<b>Melissa:</b><em> ""I don't know if Danny ate the last cupcake. Did Amanda inform Sam that Danny ate the last cupcake?""</em>	100	html-slider-response	31	238812	0.0-6.0-0.21	50	target	NA	NA	a6eb2cd9-4440-4d38-9132-edafdecad185	2023-07-14 14:40:59 CEST
8600	<b>Saskia:</b><em> ""I don't know if William was ever interested in history. Is William interested in history again?""</em>	100	html-slider-response	32	247415	0.0-6.0-0.22	50	target	NA	NA	a6eb2cd9-4440-4d38-9132-edafdecad185	2023-07-14 14:40:59 CEST
11433	<b>Daniel:</b><em> ""Jackson is training for a marathon. Did Laura establish that Jackson ran 10 miles?""</em>	100	html-slider-response	33	258850	0.0-6.0-0.23	50	target	NA	NA	a6eb2cd9-4440-4d38-9132-edafdecad185	2023-07-14 14:40:59 CEST
6657	<b>Gregory:</b><em> ""I don't know if Jayden rented a car. Did Stephanie suggest that Jayden rented a car?""</em>	100	html-slider-response	34	265510	0.0-6.0-0.24	50	target	NA	NA	a6eb2cd9-4440-4d38-9132-edafdecad185	2023-07-14 14:40:59 CEST
7853	<b>Autumn:</b><em> ""I don't know if John was ever reading ""Dune"". Has John recently continued reading ""Dune""?""</em>	88	html-slider-response	35	273365	0.0-6.0-0.25	50	target	NA	NA	a6eb2cd9-4440-4d38-9132-edafdecad185	2023-07-14 14:40:59 CEST
8164	<b>Scott:</b><em> ""I don't know if Charley speaks Spanish. Did Anna see that Charley speaks Spanish?""</em>	100	html-slider-response	36	281531	0.0-6.0-0.26	50	target	NA	NA	a6eb2cd9-4440-4d38-9132-edafdecad185	2023-07-14 14:40:59 CEST
9409	<b>Arlen:</b><em> ""I don't know if anyone was playing outside with the kids. Was it Jack who was playing outside with the kids?""</em>	100	html-slider-response	37	290942	0.0-6.0-0.27	50	target	NA	NA	a6eb2cd9-4440-4d38-9132-edafdecad185	2023-07-14 14:40:59 CEST
15649	<b>Joseph:</b><em> ""I don't know if Sophia got a tattoo. Did Ben confess that Sophia got a tattoo?""</em>	100	html-slider-response	38	306588	0.0-6.0-0.28	50	target	NA	NA	a6eb2cd9-4440-4d38-9132-edafdecad185	2023-07-14 14:40:59 CEST
8097	<b>Cici:</b><em> ""I don't know if Stephen was ever in the habit of vaping. Has Stephen recently stopped vaping?""</em>	87	html-slider-response	39	314688	0.0-6.0-0.29	50	target	NA	NA	a6eb2cd9-4440-4d38-9132-edafdecad185	2023-07-14 14:40:59 CEST
18570	NA	{""P0_Q0"":null,""age"":""30"",""gender"":""female"",""language"":""yes"",""amE"":""yes"",""comments"":""""}	survey	40	333394	0.0-7.0	NA	demographics	NA	[]	a6eb2cd9-4440-4d38-9132-edafdecad185	2023-07-14 14:40:59 CEST
6118	<p>You're done! Thanks for participating! <br>
  The completion code is <b>C1HNU5GM</b>.</p>	0	html-button-response	41	339517	0.0-8.0	NA	NA	NA	NA	a6eb2cd9-4440-4d38-9132-edafdecad185	2023-07-14 14:40:59 CEST
6311	<h3>Instructions</h3><p style='text-align:left'>In this experiment, you will read what different people say and rate how natural that sounds. Here's an example from Leah:<br><br><b>Leah:</b> <i>""I have no idea if Mitchell got a poodle. Did Frank suggest that Mitchell wanted to get a poodle?""</i><br> <br> Leah first made a statement and then asked a question. We ask you to rate how natural the question sounds in the context of the statement. You will give your answer on a sliding scale from ""totally unnatural"" to ""totally natural"".<br><br> We start off with four practice examples. Then you will rate 30 examples.<br><br><b> Payment:</b> You will be paid $1.35 to participate in this experiment, which will take about 5 minutes to complete.<br> <p style='text-align:left' font size=""1""> <b> Consent:</b> By clicking on the button below you agree to participate in this experiment, which is conducted by researchers at the University of Stuttgart. You may withdraw from this experiment at any time without penalty. The data collected will be anonymous and confidential. If you have any questions, you may contact the requester through Prolific's platform, or directly at judith.tonhauser@ling.uni-stuttgart.de.</p>	0	html-button-response	0	6316	0.0-0.0	NA	NA	NA	NA	c5d1ab4b-1081-4f55-9ca6-1fc8bf6a751f	2023-07-14 14:41:29 CEST
27931	<b>First practice example</b><br><br><b> Katia: </b> <i>""I have no idea where Natalie is from. Is Natalie from the USA?""</i>	71	html-slider-response	1	34247	0.0-1.0-0.0	50	practice	TRUE	NA	c5d1ab4b-1081-4f55-9ca6-1fc8bf6a751f	2023-07-14 14:41:29 CEST
4099	<p style='text-align:left'><b> Good response! </b><br><br><b> Katia: </b> <i>""I have no idea where Natalie is from. Is Natalie from the USA?""</i> <br><br> Katia's question sounds very natural in this context because it is natural for Katia to ask whether Natalie is from the USA if Katia doesn't know where Natalie is from.</p>	0	html-button-response	2	38347	0.0-1.0-2.0-0.0	NA	NA	NA	NA	c5d1ab4b-1081-4f55-9ca6-1fc8bf6a751f	2023-07-14 14:41:29 CEST
4251	<p style='text-align:left'><b>Here's the second practice example.</b><br><br><b>Xenia: </b><i>""I don't have any sisters. Have you met my sister yet?""</i></p>	0	html-slider-response	3	42599	0.0-2.0-0.0	50	practice	TRUE	NA	c5d1ab4b-1081-4f55-9ca6-1fc8bf6a751f	2023-07-14 14:41:29 CEST
1297	<p style='text-align:left'><b> Good response! </b><br><br><b>Xenia: </b><i>""I don't have any sisters. Have you met my sister yet?""</i> <br><br> Xenia's question does not sound very natural in this context. Her question implies that she has a sister, but she stated that she doesn't have any sisters.</p>	0	html-button-response	4	43897	0.0-2.0-2.0-0.0	NA	NA	NA	NA	c5d1ab4b-1081-4f55-9ca6-1fc8bf6a751f	2023-07-14 14:41:29 CEST
7118	<p style='text-align:left'><b>Here's the third practice example.</b><br><br><b>Kerstin: </b> <i>""I am going on vacation to Ireland. Does Fritz realize that Joe is going with me?""</i></p>	64	html-slider-response	5	51016	0.0-3.0-0.0	50	practice	TRUE	NA	c5d1ab4b-1081-4f55-9ca6-1fc8bf6a751f	2023-07-14 14:41:29 CEST
1413	<p style='text-align:left'><b> Good response! </b><br><br><b>Kerstin: </b> <i>""I am going on vacation to Ireland. Does Fritz realize that Joe is going with me?""</i> <br><br> Kerstin's question sounds very natural in this context.</p>	0	html-button-response	6	52429	0.0-3.0-2.0-0.0	NA	NA	NA	NA	c5d1ab4b-1081-4f55-9ca6-1fc8bf6a751f	2023-07-14 14:41:29 CEST
5769	<p style='text-align:left'><b> Here's the last practice example.</b><br><br><b>Mirko: </b><i>""I have no idea if Anna has any dogs. Is Samuel glad that Anna fed her dogs?""</i></p>	0	html-slider-response	7	58198	0.0-4.0-0.0	50	practice	TRUE	NA	c5d1ab4b-1081-4f55-9ca6-1fc8bf6a751f	2023-07-14 14:41:29 CEST
1086	<p style='text-align:left'><b> Good response! </b><br><br><b>Mirko: </b><i>""I have no idea if Anna has any dogs. Is Samuel glad that Anna fed her dogs?""</i> <br><br> Mirko's question does not sound very natural in this context. Mirko's question implies that he thinks that Anna has dogs, but he stated that he doesn't know whether Anna has any dogs.</p>	0	html-button-response	8	59285	0.0-4.0-2.0-0.0	NA	NA	NA	NA	c5d1ab4b-1081-4f55-9ca6-1fc8bf6a751f	2023-07-14 14:41:29 CEST
16178	<p style='text-align:left'><b>Great, you're ready to go!</b><br>To make sure you are paying attention, we have included some examples for which we know the right answer. If you read the examples carefully, you will definitely get those right.<br></p>	0	html-button-response	9	75463	0.0-5.0	NA	NA	NA	NA	c5d1ab4b-1081-4f55-9ca6-1fc8bf6a751f	2023-07-14 14:41:29 CEST
7147	<b>Jennifer:</b><em> ""I don't know if Olivia sleeps until noon. Did Jerry establish that Olivia sleeps until noon?""</em>	38	html-slider-response	10	82612	0.0-6.0-0.0	50	target	NA	NA	c5d1ab4b-1081-4f55-9ca6-1fc8bf6a751f	2023-07-14 14:41:29 CEST
6332	<b>Autumn:</b><em> ""I don't know if John was ever reading ""Dune"". Has John recently continued reading ""Dune""?""</em>	0	html-slider-response	11	88945	0.0-6.0-0.1	50	target	NA	NA	c5d1ab4b-1081-4f55-9ca6-1fc8bf6a751f	2023-07-14 14:41:29 CEST
4966	<b>Cynthia:</b><em> ""I don't know if Charley speaks Spanish. Does Anna think that Charley speaks Spanish?""</em>	86	html-slider-response	12	93912	0.0-6.0-0.2	50	target	NA	NA	c5d1ab4b-1081-4f55-9ca6-1fc8bf6a751f	2023-07-14 14:41:29 CEST
6035	<b>Shirley:</b><em> ""I don't know if Emma studied on Saturday morning. Did Justin prove that Emma studied on Saturday morning?""</em>	58	html-slider-response	13	99947	0.0-6.0-0.3	50	target	NA	NA	c5d1ab4b-1081-4f55-9ca6-1fc8bf6a751f	2023-07-14 14:41:29 CEST
11237	<b>Finn:</b><em> ""I don't know if Samantha has a new hat. Does Samantha have a new hat?""</em>	100	html-slider-response	14	111184	0.0-6.0-0.4	50	target	NA	NA	c5d1ab4b-1081-4f55-9ca6-1fc8bf6a751f	2023-07-14 14:41:29 CEST
5994	<b>Arlen:</b><em> ""I don't know if anyone was playing outside with the kids. Was it Jack who was playing outside with the kids?""</em>	0	html-slider-response	15	117178	0.0-6.0-0.5	50	target	NA	NA	c5d1ab4b-1081-4f55-9ca6-1fc8bf6a751f	2023-07-14 14:41:29 CEST
7416	<b>Christopher:</b><em> ""I don't know if Zoe calculated the tip. Did Tim demonstrate that Zoe calculated the tip?""</em>	52	html-slider-response	16	124595	0.0-6.0-0.6	50	target	NA	NA	c5d1ab4b-1081-4f55-9ca6-1fc8bf6a751f	2023-07-14 14:41:29 CEST
35386	<b>Leia:</b><em> ""I don't know if Ann plays any instrument. Does Ann play the flute, too?""</em>	0	html-slider-response	17	159981	0.0-6.0-0.7	50	target	NA	NA	c5d1ab4b-1081-4f55-9ca6-1fc8bf6a751f	2023-07-14 14:41:29 CEST
32799	<b>Rebecca:</b><em> ""I don't know if Frank got a cat. Did Melissa confess that Frank got a cat?""</em>	38	html-slider-response	18	192781	0.0-6.0-0.8	50	target	NA	NA	c5d1ab4b-1081-4f55-9ca6-1fc8bf6a751f	2023-07-14 14:41:29 CEST
11013	<b>Jacob:</b><em> ""Josie loves France. Is Scott right that Josie went on vacation to France?""</em>	50	html-slider-response	19	203794	0.0-6.0-0.9	50	target	NA	NA	c5d1ab4b-1081-4f55-9ca6-1fc8bf6a751f	2023-07-14 14:41:29 CEST
4966	<b>Scott:</b><em> ""I don't know if Isabella ate a steak on Sunday. Did Kevin hear that Isabella ate a steak on Sunday?""</em>	64	html-slider-response	20	208760	0.0-6.0-0.10	50	target	NA	NA	c5d1ab4b-1081-4f55-9ca6-1fc8bf6a751f	2023-07-14 14:41:29 CEST
6050	<b>Gary:</b><em> ""Emily has been saving for a year. Did Brian discover that Emily bought a car yesterday?""</em>	16	html-slider-response	21	214811	0.0-6.0-0.11	50	target	NA	NA	c5d1ab4b-1081-4f55-9ca6-1fc8bf6a751f	2023-07-14 14:41:29 CEST
5332	<b>Edward:</b><em> ""I don't know if Owen shoveled snow last winter. Did Cynthia reveal that Owen shoveled snow last winter?""</em>	60	html-slider-response	22	220143	0.0-6.0-0.12	50	target	NA	NA	c5d1ab4b-1081-4f55-9ca6-1fc8bf6a751f	2023-07-14 14:41:29 CEST
3571	<b>Dalton:</b><em> ""I don't know if Svenja plays any sport. Does Svenja also play soccer?""</em>	0	html-slider-response	23	223715	0.0-6.0-0.13	50	target	NA	NA	c5d1ab4b-1081-4f55-9ca6-1fc8bf6a751f	2023-07-14 14:41:29 CEST
3930	<b>Kimberly:</b><em> ""I don't know if Tony had a drink last night. Did Rebecca announce that Tony had a drink last night?""</em>	59	html-slider-response	24	227645	0.0-6.0-0.14	50	target	NA	NA	c5d1ab4b-1081-4f55-9ca6-1fc8bf6a751f	2023-07-14 14:41:29 CEST
5398	<b>Dorothy:</b><em> ""Sophia is a high end fashion model. Did Ben suggest that Sophia got a tattoo?""</em>	66	html-slider-response	25	233043	0.0-6.0-0.15	50	target	NA	NA	c5d1ab4b-1081-4f55-9ca6-1fc8bf6a751f	2023-07-14 14:41:29 CEST
4853	<b>Ike:</b><em> ""Mary visited her aunt yesterday. Is Mary's aunt sick?""</em>	100	html-slider-response	26	237897	0.0-6.0-0.16	50	target	NA	NA	c5d1ab4b-1081-4f55-9ca6-1fc8bf6a751f	2023-07-14 14:41:29 CEST
5779	<b>Ruth:</b><em> ""I don't know if Danny ate the last cupcake. Did Amanda confirm that Danny ate the last cupcake?""</em>	55	html-slider-response	27	243677	0.0-6.0-0.17	50	target	NA	NA	c5d1ab4b-1081-4f55-9ca6-1fc8bf6a751f	2023-07-14 14:41:29 CEST
4950	<b>Marlo:</b><em> ""I don't know if this pizza has mushrooms on it. Does this pizza have mushrooms on it?""</em>	66	html-slider-response	28	248627	0.0-6.0-0.18	50	target	NA	NA	c5d1ab4b-1081-4f55-9ca6-1fc8bf6a751f	2023-07-14 14:41:29 CEST
6332	<b>Saskia:</b><em> ""I don't know if William was ever interested in history. Is William interested in history again?""</em>	0	html-slider-response	29	254960	0.0-6.0-0.19	50	target	NA	NA	c5d1ab4b-1081-4f55-9ca6-1fc8bf6a751f	2023-07-14 14:41:29 CEST
7667	<b>Thomas:</b><em> ""Jackson is obese. Did Laura say that Jackson ran 10 miles?""</em>	43	html-slider-response	30	262627	0.0-6.0-0.20	50	target	NA	NA	c5d1ab4b-1081-4f55-9ca6-1fc8bf6a751f	2023-07-14 14:41:29 CEST
7052	<b>Kenneth:</b><em> ""I don't know if Grace visited her sister. Is Andrew annoyed that Grace visited her sister?""</em>	2	html-slider-response	31	269681	0.0-6.0-0.21	50	target	NA	NA	c5d1ab4b-1081-4f55-9ca6-1fc8bf6a751f	2023-07-14 14:41:29 CEST
4061	<b>James:</b><em> ""I don't know if Jon walks to work. Did Ruth see that Jon walks to work?""</em>	63	html-slider-response	32	273743	0.0-6.0-0.22	50	target	NA	NA	c5d1ab4b-1081-4f55-9ca6-1fc8bf6a751f	2023-07-14 14:41:29 CEST
6199	<b>Jessica:</b><em> ""Jayden doesn't have a driver's license. Did Stephanie admit that Jayden rented a car?""</em>	2	html-slider-response	33	279943	0.0-6.0-0.23	50	target	NA	NA	c5d1ab4b-1081-4f55-9ca6-1fc8bf6a751f	2023-07-14 14:41:29 CEST
6533	<b>Ronald:</b><em> ""Julian is German. Does Kathleen know that Julian dances salsa?""</em>	57	html-slider-response	34	286476	0.0-6.0-0.24	50	target	NA	NA	c5d1ab4b-1081-4f55-9ca6-1fc8bf6a751f	2023-07-14 14:41:29 CEST
9818	<b>Gary:</b><em> ""Mary is taking a prenatal yoga class. Did Patrick inform Sam that Mary is pregnant?""</em>	66	html-slider-response	35	296294	0.0-6.0-0.25	50	target	NA	NA	c5d1ab4b-1081-4f55-9ca6-1fc8bf6a751f	2023-07-14 14:41:29 CEST
7534	<b>Cici:</b><em> ""I don't know if Stephen was ever in the habit of vaping. Has Stephen recently stopped vaping?""</em>	1	html-slider-response	36	303828	0.0-6.0-0.26	50	target	NA	NA	c5d1ab4b-1081-4f55-9ca6-1fc8bf6a751f	2023-07-14 14:41:29 CEST
8364	<b>Stephanie:</b><em> ""I don't know if Mia drank 2 cocktails last night. Did Ray pretend that Mia drank 2 cocktails last night?""</em>	57	html-slider-response	37	312193	0.0-6.0-0.27	50	target	NA	NA	c5d1ab4b-1081-4f55-9ca6-1fc8bf6a751f	2023-07-14 14:41:29 CEST
18666	<b>Pax:</b><em> ""Hendrick was looking to buy a car. Was Hendrick's car expensive?""</em>	71	html-slider-response	38	330859	0.0-6.0-0.28	50	target	NA	NA	c5d1ab4b-1081-4f55-9ca6-1fc8bf6a751f	2023-07-14 14:41:29 CEST
6965	<b>Nicholas:</b><em> ""Josh is a 5-year old boy. Did Sharon acknowledge that Josh learned to ride a bike yesterday?""</em>	64	html-slider-response	39	337825	0.0-6.0-0.29	50	target	NA	NA	c5d1ab4b-1081-4f55-9ca6-1fc8bf6a751f	2023-07-14 14:41:29 CEST
29389	NA	{""P0_Q0"":null,""age"":""35"",""gender"":""female"",""language"":""yes"",""amE"":""yes"",""comments"":""I have none, thanks!""}	survey	40	367253	0.0-7.0	NA	demographics	NA	[]	c5d1ab4b-1081-4f55-9ca6-1fc8bf6a751f	2023-07-14 14:41:29 CEST
5988	<p>You're done! Thanks for participating! <br>
  The completion code is <b>C1HNU5GM</b>.</p>	0	html-button-response	41	373242	0.0-8.0	NA	NA	NA	NA	c5d1ab4b-1081-4f55-9ca6-1fc8bf6a751f	2023-07-14 14:41:29 CEST
62148	<h3>Instructions</h3><p style='text-align:left'>In this experiment, you will read what different people say and rate how natural that sounds. Here's an example from Leah:<br><br><b>Leah:</b> <i>""I have no idea if Mitchell got a poodle. Did Frank suggest that Mitchell wanted to get a poodle?""</i><br> <br> Leah first made a statement and then asked a question. We ask you to rate how natural the question sounds in the context of the statement. You will give your answer on a sliding scale from ""totally unnatural"" to ""totally natural"".<br><br> We start off with four practice examples. Then you will rate 30 examples.<br><br><b> Payment:</b> You will be paid $1.35 to participate in this experiment, which will take about 5 minutes to complete.<br> <p style='text-align:left' font size=""1""> <b> Consent:</b> By clicking on the button below you agree to participate in this experiment, which is conducted by researchers at the University of Stuttgart. You may withdraw from this experiment at any time without penalty. The data collected will be anonymous and confidential. If you have any questions, you may contact the requester through Prolific's platform, or directly at judith.tonhauser@ling.uni-stuttgart.de.</p>	0	html-button-response	0	62165	0.0-0.0	NA	NA	NA	NA	e7186819-116c-4b47-a934-a60c769a032c	2023-07-14 14:42:35 CEST
7892	<b>First practice example</b><br><br><b> Katia: </b> <i>""I have no idea where Natalie is from. Is Natalie from the USA?""</i>	100	html-slider-response	1	70060	0.0-1.0-0.0	50	practice	TRUE	NA	e7186819-116c-4b47-a934-a60c769a032c	2023-07-14 14:42:35 CEST
6118	<p style='text-align:left'><b> Good response! </b><br><br><b> Katia: </b> <i>""I have no idea where Natalie is from. Is Natalie from the USA?""</i> <br><br> Katia's question sounds very natural in this context because it is natural for Katia to ask whether Natalie is from the USA if Katia doesn't know where Natalie is from.</p>	0	html-button-response	2	76180	0.0-1.0-2.0-0.0	NA	NA	NA	NA	e7186819-116c-4b47-a934-a60c769a032c	2023-07-14 14:42:35 CEST
6566	<p style='text-align:left'><b>Here's the second practice example.</b><br><br><b>Xenia: </b><i>""I don't have any sisters. Have you met my sister yet?""</i></p>	0	html-slider-response	3	82747	0.0-2.0-0.0	50	practice	TRUE	NA	e7186819-116c-4b47-a934-a60c769a032c	2023-07-14 14:42:35 CEST
3647	<p style='text-align:left'><b> Good response! </b><br><br><b>Xenia: </b><i>""I don't have any sisters. Have you met my sister yet?""</i> <br><br> Xenia's question does not sound very natural in this context. Her question implies that she has a sister, but she stated that she doesn't have any sisters.</p>	0	html-button-response	4	86396	0.0-2.0-2.0-0.0	NA	NA	NA	NA	e7186819-116c-4b47-a934-a60c769a032c	2023-07-14 14:42:35 CEST
10395	<p style='text-align:left'><b>Here's the third practice example.</b><br><br><b>Kerstin: </b> <i>""I am going on vacation to Ireland. Does Fritz realize that Joe is going with me?""</i></p>	100	html-slider-response	5	96792	0.0-3.0-0.0	50	practice	TRUE	NA	e7186819-116c-4b47-a934-a60c769a032c	2023-07-14 14:42:35 CEST
4850	<p style='text-align:left'><b> Good response! </b><br><br><b>Kerstin: </b> <i>""I am going on vacation to Ireland. Does Fritz realize that Joe is going with me?""</i> <br><br> Kerstin's question sounds very natural in this context.</p>	0	html-button-response	6	101644	0.0-3.0-2.0-0.0	NA	NA	NA	NA	e7186819-116c-4b47-a934-a60c769a032c	2023-07-14 14:42:35 CEST
7779	<p style='text-align:left'><b> Here's the last practice example.</b><br><br><b>Mirko: </b><i>""I have no idea if Anna has any dogs. Is Samuel glad that Anna fed her dogs?""</i></p>	0	html-slider-response	7	109424	0.0-4.0-0.0	50	practice	TRUE	NA	e7186819-116c-4b47-a934-a60c769a032c	2023-07-14 14:42:35 CEST
4159	<p style='text-align:left'><b> Good response! </b><br><br><b>Mirko: </b><i>""I have no idea if Anna has any dogs. Is Samuel glad that Anna fed her dogs?""</i> <br><br> Mirko's question does not sound very natural in this context. Mirko's question implies that he thinks that Anna has dogs, but he stated that he doesn't know whether Anna has any dogs.</p>	0	html-button-response	8	113584	0.0-4.0-2.0-0.0	NA	NA	NA	NA	e7186819-116c-4b47-a934-a60c769a032c	2023-07-14 14:42:35 CEST
9530	<p style='text-align:left'><b>Great, you're ready to go!</b><br>To make sure you are paying attention, we have included some examples for which we know the right answer. If you read the examples carefully, you will definitely get those right.<br></p>	0	html-button-response	9	123116	0.0-5.0	NA	NA	NA	NA	e7186819-116c-4b47-a934-a60c769a032c	2023-07-14 14:42:35 CEST
8181	<b>Finn:</b><em> ""I don't know if Samantha has a new hat. Does Samantha have a new hat?""</em>	100	html-slider-response	10	131299	0.0-6.0-0.0	50	target	NA	NA	e7186819-116c-4b47-a934-a60c769a032c	2023-07-14 14:42:35 CEST
12011	<b>Jason:</b><em> ""I don't know if Zoe calculated the tip. Did Tim confess that Zoe calculated the tip?""</em>	0	html-slider-response	11	143311	0.0-6.0-0.1	50	target	NA	NA	e7186819-116c-4b47-a934-a60c769a032c	2023-07-14 14:42:35 CEST
7589	<b>Leia:</b><em> ""I don't know if Ann plays any instrument. Does Ann play the flute, too?""</em>	0	html-slider-response	12	150902	0.0-6.0-0.2	50	target	NA	NA	e7186819-116c-4b47-a934-a60c769a032c	2023-07-14 14:42:35 CEST
9601	<b>Arlen:</b><em> ""I don't know if anyone was playing outside with the kids. Was it Jack who was playing outside with the kids?""</em>	0	html-slider-response	13	160504	0.0-6.0-0.3	50	target	NA	NA	e7186819-116c-4b47-a934-a60c769a032c	2023-07-14 14:42:35 CEST
10204	<b>Pax:</b><em> ""Hendrick was looking to buy a car. Was Hendrick's car expensive?""</em>	0	html-slider-response	14	170709	0.0-6.0-0.4	50	target	NA	NA	e7186819-116c-4b47-a934-a60c769a032c	2023-07-14 14:42:35 CEST
10722	<b>Ashley:</b><em> ""Sophia is a high end fashion model. Did Ben prove that Sophia got a tattoo?""</em>	100	html-slider-response	15	181432	0.0-6.0-0.5	50	target	NA	NA	e7186819-116c-4b47-a934-a60c769a032c	2023-07-14 14:42:35 CEST
6806	<b>Marlo:</b><em> ""I don't know if this pizza has mushrooms on it. Does this pizza have mushrooms on it?""</em>	100	html-slider-response	16	188240	0.0-6.0-0.6	50	target	NA	NA	e7186819-116c-4b47-a934-a60c769a032c	2023-07-14 14:42:35 CEST
7083	<b>Dalton:</b><em> ""I don't know if Svenja plays any sport. Does Svenja also play soccer?""</em>	0	html-slider-response	17	195324	0.0-6.0-0.7	50	target	NA	NA	e7186819-116c-4b47-a934-a60c769a032c	2023-07-14 14:42:35 CEST
7985	<b>Autumn:</b><em> ""I don't know if John was ever reading ""Dune"". Has John recently continued reading ""Dune""?""</em>	0	html-slider-response	18	203311	0.0-6.0-0.8	50	target	NA	NA	e7186819-116c-4b47-a934-a60c769a032c	2023-07-14 14:42:35 CEST
6958	<b>Saskia:</b><em> ""I don't know if William was ever interested in history. Is William interested in history again?""</em>	0	html-slider-response	19	210270	0.0-6.0-0.9	50	target	NA	NA	e7186819-116c-4b47-a934-a60c769a032c	2023-07-14 14:42:35 CEST
5380	<b>Ike:</b><em> ""Mary visited her aunt yesterday. Is Mary's aunt sick?""</em>	100	html-slider-response	20	215651	0.0-6.0-0.10	50	target	NA	NA	e7186819-116c-4b47-a934-a60c769a032c	2023-07-14 14:42:35 CEST
45158	<b>Tyler:</b><em> ""Danny loves cake. Did Amanda reveal that Danny ate the last cupcake?""</em>	100	html-slider-response	21	260810	0.0-6.0-0.11	50	target	NA	NA	e7186819-116c-4b47-a934-a60c769a032c	2023-07-14 14:42:35 CEST
14544	<b>David:</b><em> ""Olivia has two small children. Did Jerry pretend that Olivia sleeps until noon?""</em>	50	html-slider-response	22	275355	0.0-6.0-0.12	50	target	NA	NA	e7186819-116c-4b47-a934-a60c769a032c	2023-07-14 14:42:35 CEST
8658	<b>Cici:</b><em> ""I don't know if Stephen was ever in the habit of vaping. Has Stephen recently stopped vaping?""</em>	50	html-slider-response	23	284014	0.0-6.0-0.13	50	target	NA	NA	e7186819-116c-4b47-a934-a60c769a032c	2023-07-14 14:42:35 CEST
21681	<b>Brian:</b><em> ""Jackson is obese. Does Laura think that Jackson ran 10 miles?""</em>	100	html-slider-response	24	305695	0.0-6.0-0.14	50	target	NA	NA	e7186819-116c-4b47-a934-a60c769a032c	2023-07-14 14:42:35 CEST
6770	<b>Nicholas:</b><em> ""I don't know if Tony had a drink last night. Did Rebecca say that Tony had a drink last night?""</em>	100	html-slider-response	25	312466	0.0-6.0-0.15	50	target	NA	NA	e7186819-116c-4b47-a934-a60c769a032c	2023-07-14 14:42:35 CEST
10828	<b>Robert:</b><em> ""Grace loves her sister. Did Andrew establish that Grace visited her sister?""</em>	100	html-slider-response	26	323296	0.0-6.0-0.16	50	target	NA	NA	e7186819-116c-4b47-a934-a60c769a032c	2023-07-14 14:42:35 CEST
10184	<b>Nicole:</b><em> ""I don't know if Julian dances salsa. Did Kathleen inform Sam that Julian dances salsa?""</em>	0	html-slider-response	27	333481	0.0-6.0-0.17	50	target	NA	NA	e7186819-116c-4b47-a934-a60c769a032c	2023-07-14 14:42:35 CEST
13056	<b>Eric:</b><em> ""Josh is a 5-year old boy. Did Sharon hear that Josh learned to ride a bike yesterday?""</em>	100	html-slider-response	28	346538	0.0-6.0-0.18	50	target	NA	NA	e7186819-116c-4b47-a934-a60c769a032c	2023-07-14 14:42:35 CEST
7479	<b>Timothy:</b><em> ""I don't know if Frank got a cat. Did Melissa confirm that Frank got a cat?""</em>	100	html-slider-response	29	354018	0.0-6.0-0.19	50	target	NA	NA	e7186819-116c-4b47-a934-a60c769a032c	2023-07-14 14:42:35 CEST
7141	<b>Elizabeth:</b><em> ""I don't know if Jon walks to work. Did Ruth discover that Jon walks to work?""</em>	100	html-slider-response	30	361161	0.0-6.0-0.20	50	target	NA	NA	e7186819-116c-4b47-a934-a60c769a032c	2023-07-14 14:42:35 CEST
8224	<b>Jennifer:</b><em> ""I don't know if Owen shoveled snow last winter. Does Cynthia know that Owen shoveled snow last winter?""</em>	0	html-slider-response	31	369386	0.0-6.0-0.21	50	target	NA	NA	e7186819-116c-4b47-a934-a60c769a032c	2023-07-14 14:42:35 CEST
11436	<b>Tyler:</b><em> ""I don't know if Emma studied on Saturday morning. Is Justin right that Emma studied on Saturday morning?""</em>	100	html-slider-response	32	380823	0.0-6.0-0.22	50	target	NA	NA	e7186819-116c-4b47-a934-a60c769a032c	2023-07-14 14:42:35 CEST
6046	<b>Kenneth:</b><em> ""I don't know if Mia drank 2 cocktails last night. Is Ray annoyed that Mia drank 2 cocktails last night?""</em>	0	html-slider-response	33	386870	0.0-6.0-0.23	50	target	NA	NA	e7186819-116c-4b47-a934-a60c769a032c	2023-07-14 14:42:35 CEST
13780	<b>Kathleen:</b><em> ""Emily never has any money. Did Brian acknowledge that Emily bought a car yesterday?""</em>	48	html-slider-response	34	400651	0.0-6.0-0.24	50	target	NA	NA	e7186819-116c-4b47-a934-a60c769a032c	2023-07-14 14:42:35 CEST
7366	<b>Stephanie:</b><em> ""I don't know if Mary is pregnant. Did Patrick demonstrate that Mary is pregnant?""</em>	100	html-slider-response	35	408018	0.0-6.0-0.25	50	target	NA	NA	e7186819-116c-4b47-a934-a60c769a032c	2023-07-14 14:42:35 CEST
4990	<b>Stephanie:</b><em> ""I don't know if Charley speaks Spanish. Did Anna announce that Charley speaks Spanish?""</em>	0	html-slider-response	36	413009	0.0-6.0-0.26	50	target	NA	NA	e7186819-116c-4b47-a934-a60c769a032c	2023-07-14 14:42:35 CEST
14990	<b>Rebecca:</b><em> ""I don't know if Isabella ate a steak on Sunday. Did Kevin admit that Isabella ate a steak on Sunday?""</em>	0	html-slider-response	37	428000	0.0-6.0-0.27	50	target	NA	NA	e7186819-116c-4b47-a934-a60c769a032c	2023-07-14 14:42:35 CEST
6138	<b>Jerry:</b><em> ""I don't know if Jayden rented a car. Did Stephanie see that Jayden rented a car?""</em>	0	html-slider-response	38	434139	0.0-6.0-0.28	50	target	NA	NA	e7186819-116c-4b47-a934-a60c769a032c	2023-07-14 14:42:35 CEST
6185	<b>Brandon:</b><em> ""Josie loves France. Did Scott suggest that Josie went on vacation to France?""</em>	100	html-slider-response	39	440325	0.0-6.0-0.29	50	target	NA	NA	e7186819-116c-4b47-a934-a60c769a032c	2023-07-14 14:42:35 CEST
15577	NA	{""P0_Q0"":null,""age"":""49"",""gender"":""female"",""language"":""yes"",""amE"":""yes"",""comments"":""""}	survey	40	455951	0.0-7.0	NA	demographics	NA	[]	e7186819-116c-4b47-a934-a60c769a032c	2023-07-14 14:42:35 CEST
7656	<p>You're done! Thanks for participating! <br>
  The completion code is <b>C1HNU5GM</b>.</p>	0	html-button-response	41	463610	0.0-8.0	NA	NA	NA	NA	e7186819-116c-4b47-a934-a60c769a032c	2023-07-14 14:42:35 CEST
37522	<h3>Instructions</h3><p style='text-align:left'>In this experiment, you will read what different people say and rate how natural that sounds. Here's an example from Leah:<br><br><b>Leah:</b> <i>""I have no idea if Mitchell got a poodle. Did Frank suggest that Mitchell wanted to get a poodle?""</i><br> <br> Leah first made a statement and then asked a question. We ask you to rate how natural the question sounds in the context of the statement. You will give your answer on a sliding scale from ""totally unnatural"" to ""totally natural"".<br><br> We start off with four practice examples. Then you will rate 30 examples.<br><br><b> Payment:</b> You will be paid $1.35 to participate in this experiment, which will take about 5 minutes to complete.<br> <p style='text-align:left' font size=""1""> <b> Consent:</b> By clicking on the button below you agree to participate in this experiment, which is conducted by researchers at the University of Stuttgart. You may withdraw from this experiment at any time without penalty. The data collected will be anonymous and confidential. If you have any questions, you may contact the requester through Prolific's platform, or directly at judith.tonhauser@ling.uni-stuttgart.de.</p>	0	html-button-response	0	37525	0.0-0.0	NA	NA	NA	NA	2dca2462-c83c-491b-af51-2c200aea3735	2023-07-14 14:42:59 CEST
26937	<b>First practice example</b><br><br><b> Katia: </b> <i>""I have no idea where Natalie is from. Is Natalie from the USA?""</i>	81	html-slider-response	1	64466	0.0-1.0-0.0	50	practice	TRUE	NA	2dca2462-c83c-491b-af51-2c200aea3735	2023-07-14 14:42:59 CEST
13225	<p style='text-align:left'><b> Good response! </b><br><br><b> Katia: </b> <i>""I have no idea where Natalie is from. Is Natalie from the USA?""</i> <br><br> Katia's question sounds very natural in this context because it is natural for Katia to ask whether Natalie is from the USA if Katia doesn't know where Natalie is from.</p>	0	html-button-response	2	77693	0.0-1.0-2.0-0.0	NA	NA	NA	NA	2dca2462-c83c-491b-af51-2c200aea3735	2023-07-14 14:42:59 CEST
11996	<p style='text-align:left'><b>Here's the second practice example.</b><br><br><b>Xenia: </b><i>""I don't have any sisters. Have you met my sister yet?""</i></p>	0	html-slider-response	3	89692	0.0-2.0-0.0	50	practice	TRUE	NA	2dca2462-c83c-491b-af51-2c200aea3735	2023-07-14 14:42:59 CEST
4898	<p style='text-align:left'><b> Good response! </b><br><br><b>Xenia: </b><i>""I don't have any sisters. Have you met my sister yet?""</i> <br><br> Xenia's question does not sound very natural in this context. Her question implies that she has a sister, but she stated that she doesn't have any sisters.</p>	0	html-button-response	4	94592	0.0-2.0-2.0-0.0	NA	NA	NA	NA	2dca2462-c83c-491b-af51-2c200aea3735	2023-07-14 14:42:59 CEST
9909	<p style='text-align:left'><b>Here's the third practice example.</b><br><br><b>Kerstin: </b> <i>""I am going on vacation to Ireland. Does Fritz realize that Joe is going with me?""</i></p>	80	html-slider-response	5	104505	0.0-3.0-0.0	50	practice	TRUE	NA	2dca2462-c83c-491b-af51-2c200aea3735	2023-07-14 14:42:59 CEST
2078	<p style='text-align:left'><b> Good response! </b><br><br><b>Kerstin: </b> <i>""I am going on vacation to Ireland. Does Fritz realize that Joe is going with me?""</i> <br><br> Kerstin's question sounds very natural in this context.</p>	0	html-button-response	6	106586	0.0-3.0-2.0-0.0	NA	NA	NA	NA	2dca2462-c83c-491b-af51-2c200aea3735	2023-07-14 14:42:59 CEST
14164	<p style='text-align:left'><b> Here's the last practice example.</b><br><br><b>Mirko: </b><i>""I have no idea if Anna has any dogs. Is Samuel glad that Anna fed her dogs?""</i></p>	4	html-slider-response	7	120752	0.0-4.0-0.0	50	practice	TRUE	NA	2dca2462-c83c-491b-af51-2c200aea3735	2023-07-14 14:42:59 CEST
7747	<p style='text-align:left'><b> Good response! </b><br><br><b>Mirko: </b><i>""I have no idea if Anna has any dogs. Is Samuel glad that Anna fed her dogs?""</i> <br><br> Mirko's question does not sound very natural in this context. Mirko's question implies that he thinks that Anna has dogs, but he stated that he doesn't know whether Anna has any dogs.</p>	0	html-button-response	8	128500	0.0-4.0-2.0-0.0	NA	NA	NA	NA	2dca2462-c83c-491b-af51-2c200aea3735	2023-07-14 14:42:59 CEST
7730	<p style='text-align:left'><b>Great, you're ready to go!</b><br>To make sure you are paying attention, we have included some examples for which we know the right answer. If you read the examples carefully, you will definitely get those right.<br></p>	0	html-button-response	9	136230	0.0-5.0	NA	NA	NA	NA	2dca2462-c83c-491b-af51-2c200aea3735	2023-07-14 14:42:59 CEST
11778	<b>Marlo:</b><em> ""I don't know if this pizza has mushrooms on it. Does this pizza have mushrooms on it?""</em>	94	html-slider-response	10	148011	0.0-6.0-0.0	50	target	NA	NA	2dca2462-c83c-491b-af51-2c200aea3735	2023-07-14 14:42:59 CEST
14116	<b>Benjamin:</b><em> ""I don't know if Charley speaks Spanish. Did Anna discover that Charley speaks Spanish?""</em>	92	html-slider-response	11	162130	0.0-6.0-0.1	50	target	NA	NA	2dca2462-c83c-491b-af51-2c200aea3735	2023-07-14 14:42:59 CEST
11890	<b>Autumn:</b><em> ""I don't know if John was ever reading ""Dune"". Has John recently continued reading ""Dune""?""</em>	9	html-slider-response	12	174022	0.0-6.0-0.2	50	target	NA	NA	2dca2462-c83c-491b-af51-2c200aea3735	2023-07-14 14:42:59 CEST
17040	<b>Ryan:</b><em> ""Sophia is a high end fashion model. Did Ben see that Sophia got a tattoo?""</em>	33	html-slider-response	13	191063	0.0-6.0-0.3	50	target	NA	NA	2dca2462-c83c-491b-af51-2c200aea3735	2023-07-14 14:42:59 CEST
14133	<b>Arlen:</b><em> ""I don't know if anyone was playing outside with the kids. Was it Jack who was playing outside with the kids?""</em>	76	html-slider-response	14	205197	0.0-6.0-0.4	50	target	NA	NA	2dca2462-c83c-491b-af51-2c200aea3735	2023-07-14 14:42:59 CEST
9461	<b>Ike:</b><em> ""Mary visited her aunt yesterday. Is Mary's aunt sick?""</em>	96	html-slider-response	15	214661	0.0-6.0-0.5	50	target	NA	NA	2dca2462-c83c-491b-af51-2c200aea3735	2023-07-14 14:42:59 CEST
8003	<b>Erin:</b><em> ""I don't know if Olivia sleeps until noon. Did Jerry establish that Olivia sleeps until noon?""</em>	92	html-slider-response	16	222665	0.0-6.0-0.6	50	target	NA	NA	2dca2462-c83c-491b-af51-2c200aea3735	2023-07-14 14:42:59 CEST
7206	<b>Finn:</b><em> ""I don't know if Samantha has a new hat. Does Samantha have a new hat?""</em>	95	html-slider-response	17	229873	0.0-6.0-0.7	50	target	NA	NA	2dca2462-c83c-491b-af51-2c200aea3735	2023-07-14 14:42:59 CEST
7980	<b>Kathleen:</b><em> ""Josie loves France. Is Scott annoyed that Josie went on vacation to France?""</em>	95	html-slider-response	18	237854	0.0-6.0-0.8	50	target	NA	NA	2dca2462-c83c-491b-af51-2c200aea3735	2023-07-14 14:42:59 CEST
7722	<b>Rachel:</b><em> ""Julian is German. Does Kathleen know that Julian dances salsa?""</em>	11	html-slider-response	19	245577	0.0-6.0-0.9	50	target	NA	NA	2dca2462-c83c-491b-af51-2c200aea3735	2023-07-14 14:42:59 CEST
10967	<b>Leia:</b><em> ""I don't know if Ann plays any instrument. Does Ann play the flute, too?""</em>	11	html-slider-response	20	256547	0.0-6.0-0.10	50	target	NA	NA	2dca2462-c83c-491b-af51-2c200aea3735	2023-07-14 14:42:59 CEST
9420	<b>Patrick:</b><em> ""I don't know if Emily bought a car yesterday. Did Brian inform Sam that Emily bought a car yesterday?""</em>	85	html-slider-response	21	265968	0.0-6.0-0.11	50	target	NA	NA	2dca2462-c83c-491b-af51-2c200aea3735	2023-07-14 14:42:59 CEST
8564	<b>Brian:</b><em> ""Jayden's car is in the shop. Does Stephanie think that Jayden rented a car?""</em>	85	html-slider-response	22	274535	0.0-6.0-0.12	50	target	NA	NA	2dca2462-c83c-491b-af51-2c200aea3735	2023-07-14 14:42:59 CEST
12105	<b>Dennis:</b><em> ""Jackson is obese. Is Laura right that Jackson ran 10 miles?""</em>	74	html-slider-response	23	286642	0.0-6.0-0.13	50	target	NA	NA	2dca2462-c83c-491b-af51-2c200aea3735	2023-07-14 14:42:59 CEST
8587	<b>Samuel:</b><em> ""I don't know if Jon walks to work. Did Ruth reveal that Jon walks to work?""</em>	92	html-slider-response	24	295231	0.0-6.0-0.14	50	target	NA	NA	2dca2462-c83c-491b-af51-2c200aea3735	2023-07-14 14:42:59 CEST
19064	<b>Alexander:</b><em> ""Emma is in first grade. Did Justin demonstrate that Emma studied on Saturday morning?""</em>	69	html-slider-response	25	314296	0.0-6.0-0.15	50	target	NA	NA	2dca2462-c83c-491b-af51-2c200aea3735	2023-07-14 14:42:59 CEST
6190	<b>Michelle:</b><em> ""I don't know if Mary is pregnant. Did Patrick confess that Mary is pregnant?""</em>	97	html-slider-response	26	320488	0.0-6.0-0.16	50	target	NA	NA	2dca2462-c83c-491b-af51-2c200aea3735	2023-07-14 14:42:59 CEST
14373	<b>Kevin:</b><em> ""Owen lives in Chicago. Did Cynthia hear that Owen shoveled snow last winter?""</em>	75	html-slider-response	27	334862	0.0-6.0-0.17	50	target	NA	NA	2dca2462-c83c-491b-af51-2c200aea3735	2023-07-14 14:42:59 CEST
8272	<b>Kenneth:</b><em> ""I don't know if Isabella ate a steak on Sunday. Did Kevin suggest that Isabella ate a steak on Sunday?""</em>	92	html-slider-response	28	343136	0.0-6.0-0.18	50	target	NA	NA	2dca2462-c83c-491b-af51-2c200aea3735	2023-07-14 14:42:59 CEST
8410	<b>Brenda:</b><em> ""Tony really likes to party with his friends. Did Rebecca confirm that Tony had a drink last night?""</em>	92	html-slider-response	29	351547	0.0-6.0-0.19	50	target	NA	NA	2dca2462-c83c-491b-af51-2c200aea3735	2023-07-14 14:42:59 CEST
15580	<b>Cici:</b><em> ""I don't know if Stephen was ever in the habit of vaping. Has Stephen recently stopped vaping?""</em>	19	html-slider-response	30	367128	0.0-6.0-0.20	50	target	NA	NA	2dca2462-c83c-491b-af51-2c200aea3735	2023-07-14 14:42:59 CEST
9400	<b>Dalton:</b><em> ""I don't know if Svenja plays any sport. Does Svenja also play soccer?""</em>	13	html-slider-response	31	376530	0.0-6.0-0.21	50	target	NA	NA	2dca2462-c83c-491b-af51-2c200aea3735	2023-07-14 14:42:59 CEST
9764	<b>Fran:</b><em> ""I don't know if Grace visited her sister. Did Andrew prove that Grace visited her sister?""</em>	73	html-slider-response	32	386294	0.0-6.0-0.22	50	target	NA	NA	2dca2462-c83c-491b-af51-2c200aea3735	2023-07-14 14:42:59 CEST
8429	<b>Lisa:</b><em> ""I don't know if Danny ate the last cupcake. Did Amanda acknowledge that Danny ate the last cupcake?""</em>	90	html-slider-response	33	394726	0.0-6.0-0.23	50	target	NA	NA	2dca2462-c83c-491b-af51-2c200aea3735	2023-07-14 14:42:59 CEST
8742	<b>Saskia:</b><em> ""I don't know if William was ever interested in history. Is William interested in history again?""</em>	8	html-slider-response	34	403470	0.0-6.0-0.24	50	target	NA	NA	2dca2462-c83c-491b-af51-2c200aea3735	2023-07-14 14:42:59 CEST
9097	<b>Steven:</b><em> ""I don't know if Josh learned to ride a bike yesterday. Did Sharon admit that Josh learned to ride a bike yesterday?""</em>	89	html-slider-response	35	412569	0.0-6.0-0.25	50	target	NA	NA	2dca2462-c83c-491b-af51-2c200aea3735	2023-07-14 14:42:59 CEST
11569	<b>Laura:</b><em> ""I don't know if Mia drank 2 cocktails last night. Did Ray pretend that Mia drank 2 cocktails last night?""</em>	86	html-slider-response	36	424140	0.0-6.0-0.26	50	target	NA	NA	2dca2462-c83c-491b-af51-2c200aea3735	2023-07-14 14:42:59 CEST
5844	<b>Eric:</b><em> ""I don't know if Frank got a cat. Did Melissa say that Frank got a cat?""</em>	96	html-slider-response	37	429987	0.0-6.0-0.27	50	target	NA	NA	2dca2462-c83c-491b-af51-2c200aea3735	2023-07-14 14:42:59 CEST
13359	<b>Pax:</b><em> ""Hendrick was looking to buy a car. Was Hendrick's car expensive?""</em>	67	html-slider-response	38	443347	0.0-6.0-0.28	50	target	NA	NA	2dca2462-c83c-491b-af51-2c200aea3735	2023-07-14 14:42:59 CEST
5781	<b>Kathleen:</b><em> ""I don't know if Zoe calculated the tip. Did Tim announce that Zoe calculated the tip?""</em>	94	html-slider-response	39	449130	0.0-6.0-0.29	50	target	NA	NA	2dca2462-c83c-491b-af51-2c200aea3735	2023-07-14 14:42:59 CEST
32018	NA	{""P0_Q0"":null,""age"":""38"",""gender"":""male"",""language"":""yes"",""amE"":""yes"",""comments"":""It was interesting thank you""}	survey	40	481244	0.0-7.0	NA	demographics	NA	[]	2dca2462-c83c-491b-af51-2c200aea3735	2023-07-14 14:42:59 CEST
4675	<p>You're done! Thanks for participating! <br>
  The completion code is <b>C1HNU5GM</b>.</p>	0	html-button-response	41	485920	0.0-8.0	NA	NA	NA	NA	2dca2462-c83c-491b-af51-2c200aea3735	2023-07-14 14:42:59 CEST
