workerid,proliferate.condition,block,content,question_type,response,rt,short_trigger,slide_number_in_experiment,trigger,trigger_class,catch_trials,subject_information.age,subject_information.american,subject_information.comments,subject_information.gender,subject_information.language,system.Browser,system.OS,system.screenH,system.screenW,time_in_minutes,error
1085,default,block1,isabella,projective,0.09,25973,announce,5,announce,C,[],19,Yes,,Female,English,Chrome,Windows,720,1280,26.5178,
1085,default,block1,olivia,projective,0.2,18618,demonstrate,6,demonstrate,C,[],19,Yes,,Female,English,Chrome,Windows,720,1280,26.5178,
1085,default,block1,tony,projective,0.71,16489,be_right,7,be_right,C,[],19,Yes,,Female,English,Chrome,Windows,720,1280,26.5178,
1085,default,block1,emma,projective,0.68,7478,acknowledge,8,acknowledge,C,[],19,Yes,,Female,English,Chrome,Windows,720,1280,26.5178,
1085,default,block1,ballet,projective,1,5930,MC,9,MC,MC,[],19,Yes,,Female,English,Chrome,Windows,720,1280,26.5178,
1085,default,block1,jayden,projective,0.68,12909,be_annoyed,10,be_annoyed,C,[],19,Yes,,Female,English,Chrome,Windows,720,1280,26.5178,
1085,default,block1,owen,projective,0.67,12421,admit,11,admit,C,[],19,Yes,,Female,English,Chrome,Windows,720,1280,26.5178,
1085,default,block1,josie,projective,0.15,59872,pretend,12,pretend,C,[],19,Yes,,Female,English,Chrome,Windows,720,1280,26.5178,
1085,default,block1,danny,projective,0.34,8847,hear,13,hear,C,[],19,Yes,,Female,English,Chrome,Windows,720,1280,26.5178,
1085,default,block1,emily,projective,0.68,14132,confess,14,confess,C,[],19,Yes,,Female,English,Chrome,Windows,720,1280,26.5178,
1085,default,block1,josh,projective,0.29,8500,think,15,think,C,[],19,Yes,,Female,English,Chrome,Windows,720,1280,26.5178,
1085,default,block1,pizza,projective,0.98,6794,MC,16,MC,MC,[],19,Yes,,Female,English,Chrome,Windows,720,1280,26.5178,
1085,default,block1,julian,projective,0.77,9070,see,17,see,C,[],19,Yes,,Female,English,Chrome,Windows,720,1280,26.5178,
1085,default,block1,sophia,projective,0.76,12979,reveal,18,reveal,C,[],19,Yes,,Female,English,Chrome,Windows,720,1280,26.5178,
1085,default,block1,kids,projective,1,33377,MC,19,MC,MC,[],19,Yes,,Female,English,Chrome,Windows,720,1280,26.5178,
1085,default,block1,frank,projective,0.34,5888,say,20,say,C,[],19,Yes,,Female,English,Chrome,Windows,720,1280,26.5178,
1085,default,block1,jon,projective,0.85,9883,prove,21,prove,C,[],19,Yes,,Female,English,Chrome,Windows,720,1280,26.5178,
1085,default,block1,hat,projective,0.96,5439,MC,22,MC,MC,[],19,Yes,,Female,English,Chrome,Windows,720,1280,26.5178,
1085,default,block1,mia,projective,0.73,9912,inform,23,inform,C,[],19,Yes,,Female,English,Chrome,Windows,720,1280,26.5178,
1085,default,block1,garage,projective,1,9786,MC,24,MC,MC,[],19,Yes,,Female,English,Chrome,Windows,720,1280,26.5178,
1085,default,block1,jackson,projective,0.95,19476,discover,25,discover,C,[],19,Yes,,Female,English,Chrome,Windows,720,1280,26.5178,
1085,default,block1,charley,projective,0.34,12148,suggest,26,suggest,C,[],19,Yes,,Female,English,Chrome,Windows,720,1280,26.5178,
1085,default,block1,muffins,projective,1,8713,MC,27,MC,MC,[],19,Yes,,Female,English,Chrome,Windows,720,1280,26.5178,
1085,default,block1,mary,projective,0.97,5692,know,28,know,C,[],19,Yes,,Female,English,Chrome,Windows,720,1280,26.5178,
1085,default,block1,zoe,projective,0.7,117416,confirm,29,confirm,C,[],19,Yes,,Female,English,Chrome,Windows,720,1280,26.5178,
1085,default,block1,grace,projective,0.4,9275,establish,30,establish,C,[],19,Yes,,Female,English,Chrome,Windows,720,1280,26.5178,
1085,default,block2,pizza,ai,0.69,27809,MC,32,MC,MC,[],19,Yes,,Female,English,Chrome,Windows,720,1280,26.5178,
1085,default,block2,mia,ai,0.96,6742,inform,33,inform,C,[],19,Yes,,Female,English,Chrome,Windows,720,1280,26.5178,
1085,default,block2,mary,ai,0.65,7968,know,34,know,C,[],19,Yes,,Female,English,Chrome,Windows,720,1280,26.5178,
1085,default,block2,jon,ai,0.97,4376,prove,35,prove,C,[],19,Yes,,Female,English,Chrome,Windows,720,1280,26.5178,
1085,default,block2,grace,ai,0.99,156942,establish,36,establish,C,[],19,Yes,,Female,English,Chrome,Windows,720,1280,26.5178,
1085,default,block2,tony,ai,1,7309,be_right,37,be_right,C,[],19,Yes,,Female,English,Chrome,Windows,720,1280,26.5178,
1085,default,block2,josh,ai,1,9799,think,38,think,C,[],19,Yes,,Female,English,Chrome,Windows,720,1280,26.5178,
1085,default,block2,jackson,ai,0.96,6816,discover,39,discover,C,[],19,Yes,,Female,English,Chrome,Windows,720,1280,26.5178,
1085,default,block2,zoe,ai,0.86,536947,confirm,40,confirm,C,[],19,Yes,,Female,English,Chrome,Windows,720,1280,26.5178,
1085,default,block2,julian,ai,0.75,47905,see,41,see,C,[],19,Yes,,Female,English,Chrome,Windows,720,1280,26.5178,
1085,default,block2,frank,ai,0.87,16957,say,42,say,C,[],19,Yes,,Female,English,Chrome,Windows,720,1280,26.5178,
1085,default,block2,owen,ai,0.96,5529,admit,43,admit,C,[],19,Yes,,Female,English,Chrome,Windows,720,1280,26.5178,
1085,default,block2,ballet,ai,0.63,10513,MC,44,MC,MC,[],19,Yes,,Female,English,Chrome,Windows,720,1280,26.5178,
1085,default,block2,jayden,ai,0.62,11049,be_annoyed,45,be_annoyed,C,[],19,Yes,,Female,English,Chrome,Windows,720,1280,26.5178,
1085,default,block2,emily,ai,0.97,6095,confess,46,confess,C,[],19,Yes,,Female,English,Chrome,Windows,720,1280,26.5178,
1085,default,block2,isabella,ai,0.97,4654,announce,47,announce,C,[],19,Yes,,Female,English,Chrome,Windows,720,1280,26.5178,
1085,default,block2,sophia,ai,0.96,5423,reveal,48,reveal,C,[],19,Yes,,Female,English,Chrome,Windows,720,1280,26.5178,
1085,default,block2,josie,ai,0.69,6473,pretend,49,pretend,C,[],19,Yes,,Female,English,Chrome,Windows,720,1280,26.5178,
1085,default,block2,charley,ai,0.97,4134,suggest,50,suggest,C,[],19,Yes,,Female,English,Chrome,Windows,720,1280,26.5178,
1085,default,block2,kids,ai,0.96,6056,MC,51,MC,MC,[],19,Yes,,Female,English,Chrome,Windows,720,1280,26.5178,
1085,default,block2,garage,ai,0.97,7146,MC,52,MC,MC,[],19,Yes,,Female,English,Chrome,Windows,720,1280,26.5178,
1085,default,block2,danny,ai,0.88,13182,hear,53,hear,C,[],19,Yes,,Female,English,Chrome,Windows,720,1280,26.5178,
1085,default,block2,hat,ai,0.99,97879,MC,54,MC,MC,[],19,Yes,,Female,English,Chrome,Windows,720,1280,26.5178,
1085,default,block2,olivia,ai,0.98,4135,demonstrate,55,demonstrate,C,[],19,Yes,,Female,English,Chrome,Windows,720,1280,26.5178,
1085,default,block2,muffins,ai,0.98,6285,MC,56,MC,MC,[],19,Yes,,Female,English,Chrome,Windows,720,1280,26.5178,
1085,default,block2,emma,ai,0.99,9415,acknowledge,57,acknowledge,C,[],19,Yes,,Female,English,Chrome,Windows,720,1280,26.5178,
1083,default,block1,emily,projective,0.02,15068,suggest,5,suggest,C,[],20,Yes,,Female,English,Chrome,Windows,720,1280,7.71355,
1083,default,block1,zoe,projective,0.06,11771,be_right,6,be_right,C,[],20,Yes,,Female,English,Chrome,Windows,720,1280,7.71355,
1083,default,block1,ballet,projective,0.96,6571,MC,7,MC,MC,[],20,Yes,,Female,English,Chrome,Windows,720,1280,7.71355,
1083,default,block1,hat,projective,0.92,9401,MC,8,MC,MC,[],20,Yes,,Female,English,Chrome,Windows,720,1280,7.71355,
1083,default,block1,kids,projective,0.96,9657,MC,9,MC,MC,[],20,Yes,,Female,English,Chrome,Windows,720,1280,7.71355,
1083,default,block1,sophia,projective,0.06,5208,admit,10,admit,C,[],20,Yes,,Female,English,Chrome,Windows,720,1280,7.71355,
1083,default,block1,tony,projective,0.08,8236,discover,11,discover,C,[],20,Yes,,Female,English,Chrome,Windows,720,1280,7.71355,
1083,default,block1,jon,projective,0.04,5406,hear,12,hear,C,[],20,Yes,,Female,English,Chrome,Windows,720,1280,7.71355,
1083,default,block1,julian,projective,0.36,13465,acknowledge,13,acknowledge,C,[],20,Yes,,Female,English,Chrome,Windows,720,1280,7.71355,
1083,default,block1,garage,projective,0.96,9452,MC,14,MC,MC,[],20,Yes,,Female,English,Chrome,Windows,720,1280,7.71355,
1083,default,block1,isabella,projective,0.28,10746,confess,15,confess,C,[],20,Yes,,Female,English,Chrome,Windows,720,1280,7.71355,
1083,default,block1,owen,projective,0.14,11590,pretend,16,pretend,C,[],20,Yes,,Female,English,Chrome,Windows,720,1280,7.71355,
1083,default,block1,josh,projective,0.11,9037,demonstrate,17,demonstrate,C,[],20,Yes,,Female,English,Chrome,Windows,720,1280,7.71355,
1083,default,block1,olivia,projective,0.7,8926,know,18,know,C,[],20,Yes,,Female,English,Chrome,Windows,720,1280,7.71355,
1083,default,block1,mia,projective,0.25,7426,prove,19,prove,C,[],20,Yes,,Female,English,Chrome,Windows,720,1280,7.71355,
1083,default,block1,jackson,projective,0.66,13391,be_annoyed,20,be_annoyed,C,[],20,Yes,,Female,English,Chrome,Windows,720,1280,7.71355,
1083,default,block1,muffins,projective,0.8,6762,MC,21,MC,MC,[],20,Yes,,Female,English,Chrome,Windows,720,1280,7.71355,
1083,default,block1,frank,projective,0.79,7269,inform,22,inform,C,[],20,Yes,,Female,English,Chrome,Windows,720,1280,7.71355,
1083,default,block1,pizza,projective,0.85,4719,MC,23,MC,MC,[],20,Yes,,Female,English,Chrome,Windows,720,1280,7.71355,
1083,default,block1,josie,projective,0.67,10224,announce,24,announce,C,[],20,Yes,,Female,English,Chrome,Windows,720,1280,7.71355,
1083,default,block1,charley,projective,0.89,5277,see,25,see,C,[],20,Yes,,Female,English,Chrome,Windows,720,1280,7.71355,
1083,default,block1,emma,projective,0.73,4992,reveal,26,reveal,C,[],20,Yes,,Female,English,Chrome,Windows,720,1280,7.71355,
1083,default,block1,grace,projective,0.41,6830,confirm,27,confirm,C,[],20,Yes,,Female,English,Chrome,Windows,720,1280,7.71355,
1083,default,block1,danny,projective,0.35,4772,establish,28,establish,C,[],20,Yes,,Female,English,Chrome,Windows,720,1280,7.71355,
1083,default,block1,mary,projective,0.28,8413,say,29,say,C,[],20,Yes,,Female,English,Chrome,Windows,720,1280,7.71355,
1083,default,block1,jayden,projective,0.22,15956,think,30,think,C,[],20,Yes,,Female,English,Chrome,Windows,720,1280,7.71355,
1083,default,block2,danny,ai,0.79,6889,establish,32,establish,C,[],20,Yes,,Female,English,Chrome,Windows,720,1280,7.71355,
1083,default,block2,mia,ai,0.79,5043,prove,33,prove,C,[],20,Yes,,Female,English,Chrome,Windows,720,1280,7.71355,
1083,default,block2,zoe,ai,0.8,9249,be_right,34,be_right,C,[],20,Yes,,Female,English,Chrome,Windows,720,1280,7.71355,
1083,default,block2,olivia,ai,0.31,5803,know,35,know,C,[],20,Yes,,Female,English,Chrome,Windows,720,1280,7.71355,
1083,default,block2,garage,ai,0.79,6095,MC,36,MC,MC,[],20,Yes,,Female,English,Chrome,Windows,720,1280,7.71355,
1083,default,block2,emily,ai,0.32,10357,suggest,37,suggest,C,[],20,Yes,,Female,English,Chrome,Windows,720,1280,7.71355,
1083,default,block2,grace,ai,0.29,5102,confirm,38,confirm,C,[],20,Yes,,Female,English,Chrome,Windows,720,1280,7.71355,
1083,default,block2,julian,ai,0.29,5055,acknowledge,39,acknowledge,C,[],20,Yes,,Female,English,Chrome,Windows,720,1280,7.71355,
1083,default,block2,jackson,ai,0.1,5701,be_annoyed,40,be_annoyed,C,[],20,Yes,,Female,English,Chrome,Windows,720,1280,7.71355,
1083,default,block2,ballet,ai,0.63,4378,MC,41,MC,MC,[],20,Yes,,Female,English,Chrome,Windows,720,1280,7.71355,
1083,default,block2,hat,ai,0.63,6634,MC,42,MC,MC,[],20,Yes,,Female,English,Chrome,Windows,720,1280,7.71355,
1083,default,block2,isabella,ai,0.32,4836,confess,43,confess,C,[],20,Yes,,Female,English,Chrome,Windows,720,1280,7.71355,
1083,default,block2,sophia,ai,0.41,6575,admit,44,admit,C,[],20,Yes,,Female,English,Chrome,Windows,720,1280,7.71355,
1083,default,block2,tony,ai,0.2,10115,discover,45,discover,C,[],20,Yes,,Female,English,Chrome,Windows,720,1280,7.71355,
1083,default,block2,charley,ai,0.07,5115,see,46,see,C,[],20,Yes,,Female,English,Chrome,Windows,720,1280,7.71355,
1083,default,block2,emma,ai,0.13,7700,reveal,47,reveal,C,[],20,Yes,,Female,English,Chrome,Windows,720,1280,7.71355,
1083,default,block2,jayden,ai,0.67,5092,think,48,think,C,[],20,Yes,,Female,English,Chrome,Windows,720,1280,7.71355,
1083,default,block2,josie,ai,0.16,6927,announce,49,announce,C,[],20,Yes,,Female,English,Chrome,Windows,720,1280,7.71355,
1083,default,block2,josh,ai,0.62,6969,demonstrate,50,demonstrate,C,[],20,Yes,,Female,English,Chrome,Windows,720,1280,7.71355,
1083,default,block2,mary,ai,0.41,4474,say,51,say,C,[],20,Yes,,Female,English,Chrome,Windows,720,1280,7.71355,
1083,default,block2,jon,ai,0.33,6377,hear,52,hear,C,[],20,Yes,,Female,English,Chrome,Windows,720,1280,7.71355,
1083,default,block2,frank,ai,0.6,4426,inform,53,inform,C,[],20,Yes,,Female,English,Chrome,Windows,720,1280,7.71355,
1083,default,block2,pizza,ai,0.72,6665,MC,54,MC,MC,[],20,Yes,,Female,English,Chrome,Windows,720,1280,7.71355,
1083,default,block2,muffins,ai,0.76,6260,MC,55,MC,MC,[],20,Yes,,Female,English,Chrome,Windows,720,1280,7.71355,
1083,default,block2,kids,ai,0.74,4440,MC,56,MC,MC,[],20,Yes,,Female,English,Chrome,Windows,720,1280,7.71355,
1083,default,block2,owen,ai,0.24,5683,pretend,57,pretend,C,[],20,Yes,,Female,English,Chrome,Windows,720,1280,7.71355,
1081,default,block1,garage,projective,0.97,9609,MC,5,MC,MC,[],25,Yes,"Tough to say whether the response sounded ""good"" being that ""good"" is subjective and I'm not clear on what the purpose of the conversations were. ",Female,English,Safari,Mac,900,1440,8.149133333333333,
1081,default,block1,zoe,projective,0.72,9972,discover,6,discover,C,[],25,Yes,"Tough to say whether the response sounded ""good"" being that ""good"" is subjective and I'm not clear on what the purpose of the conversations were. ",Female,English,Safari,Mac,900,1440,8.149133333333333,
1081,default,block1,emily,projective,0.77,10178,see,7,see,C,[],25,Yes,"Tough to say whether the response sounded ""good"" being that ""good"" is subjective and I'm not clear on what the purpose of the conversations were. ",Female,English,Safari,Mac,900,1440,8.149133333333333,
1081,default,block1,danny,projective,0.73,8636,announce,8,announce,C,[],25,Yes,"Tough to say whether the response sounded ""good"" being that ""good"" is subjective and I'm not clear on what the purpose of the conversations were. ",Female,English,Safari,Mac,900,1440,8.149133333333333,
1081,default,block1,olivia,projective,0.59,6678,acknowledge,9,acknowledge,C,[],25,Yes,"Tough to say whether the response sounded ""good"" being that ""good"" is subjective and I'm not clear on what the purpose of the conversations were. ",Female,English,Safari,Mac,900,1440,8.149133333333333,
1081,default,block1,owen,projective,0.52,6574,prove,10,prove,C,[],25,Yes,"Tough to say whether the response sounded ""good"" being that ""good"" is subjective and I'm not clear on what the purpose of the conversations were. ",Female,English,Safari,Mac,900,1440,8.149133333333333,
1081,default,block1,jon,projective,0.5,3951,pretend,11,pretend,C,[],25,Yes,"Tough to say whether the response sounded ""good"" being that ""good"" is subjective and I'm not clear on what the purpose of the conversations were. ",Female,English,Safari,Mac,900,1440,8.149133333333333,
1081,default,block1,jackson,projective,0.5,15838,confess,12,confess,C,[],25,Yes,"Tough to say whether the response sounded ""good"" being that ""good"" is subjective and I'm not clear on what the purpose of the conversations were. ",Female,English,Safari,Mac,900,1440,8.149133333333333,
1081,default,block1,isabella,projective,0.5,4985,know,13,know,C,[],25,Yes,"Tough to say whether the response sounded ""good"" being that ""good"" is subjective and I'm not clear on what the purpose of the conversations were. ",Female,English,Safari,Mac,900,1440,8.149133333333333,
1081,default,block1,frank,projective,0.48,10573,admit,14,admit,C,[],25,Yes,"Tough to say whether the response sounded ""good"" being that ""good"" is subjective and I'm not clear on what the purpose of the conversations were. ",Female,English,Safari,Mac,900,1440,8.149133333333333,
1081,default,block1,josie,projective,0.5,4140,say,15,say,C,[],25,Yes,"Tough to say whether the response sounded ""good"" being that ""good"" is subjective and I'm not clear on what the purpose of the conversations were. ",Female,English,Safari,Mac,900,1440,8.149133333333333,
1081,default,block1,hat,projective,0.96,7791,MC,16,MC,MC,[],25,Yes,"Tough to say whether the response sounded ""good"" being that ""good"" is subjective and I'm not clear on what the purpose of the conversations were. ",Female,English,Safari,Mac,900,1440,8.149133333333333,
1081,default,block1,jayden,projective,0.49,6042,confirm,17,confirm,C,[],25,Yes,"Tough to say whether the response sounded ""good"" being that ""good"" is subjective and I'm not clear on what the purpose of the conversations were. ",Female,English,Safari,Mac,900,1440,8.149133333333333,
1081,default,block1,kids,projective,0.98,7317,MC,18,MC,MC,[],25,Yes,"Tough to say whether the response sounded ""good"" being that ""good"" is subjective and I'm not clear on what the purpose of the conversations were. ",Female,English,Safari,Mac,900,1440,8.149133333333333,
1081,default,block1,mary,projective,0.49,7530,be_annoyed,19,be_annoyed,C,[],25,Yes,"Tough to say whether the response sounded ""good"" being that ""good"" is subjective and I'm not clear on what the purpose of the conversations were. ",Female,English,Safari,Mac,900,1440,8.149133333333333,
1081,default,block1,mia,projective,0.49,9803,hear,20,hear,C,[],25,Yes,"Tough to say whether the response sounded ""good"" being that ""good"" is subjective and I'm not clear on what the purpose of the conversations were. ",Female,English,Safari,Mac,900,1440,8.149133333333333,
1081,default,block1,grace,projective,0.51,6932,establish,21,establish,C,[],25,Yes,"Tough to say whether the response sounded ""good"" being that ""good"" is subjective and I'm not clear on what the purpose of the conversations were. ",Female,English,Safari,Mac,900,1440,8.149133333333333,
1081,default,block1,tony,projective,0.5,6049,demonstrate,22,demonstrate,C,[],25,Yes,"Tough to say whether the response sounded ""good"" being that ""good"" is subjective and I'm not clear on what the purpose of the conversations were. ",Female,English,Safari,Mac,900,1440,8.149133333333333,
1081,default,block1,pizza,projective,0.97,4960,MC,23,MC,MC,[],25,Yes,"Tough to say whether the response sounded ""good"" being that ""good"" is subjective and I'm not clear on what the purpose of the conversations were. ",Female,English,Safari,Mac,900,1440,8.149133333333333,
1081,default,block1,charley,projective,0.48,4564,suggest,24,suggest,C,[],25,Yes,"Tough to say whether the response sounded ""good"" being that ""good"" is subjective and I'm not clear on what the purpose of the conversations were. ",Female,English,Safari,Mac,900,1440,8.149133333333333,
1081,default,block1,ballet,projective,0.99,8888,MC,25,MC,MC,[],25,Yes,"Tough to say whether the response sounded ""good"" being that ""good"" is subjective and I'm not clear on what the purpose of the conversations were. ",Female,English,Safari,Mac,900,1440,8.149133333333333,
1081,default,block1,julian,projective,0.47,7146,think,26,think,C,[],25,Yes,"Tough to say whether the response sounded ""good"" being that ""good"" is subjective and I'm not clear on what the purpose of the conversations were. ",Female,English,Safari,Mac,900,1440,8.149133333333333,
1081,default,block1,muffins,projective,0.98,3681,MC,27,MC,MC,[],25,Yes,"Tough to say whether the response sounded ""good"" being that ""good"" is subjective and I'm not clear on what the purpose of the conversations were. ",Female,English,Safari,Mac,900,1440,8.149133333333333,
1081,default,block1,emma,projective,0.49,6534,inform,28,inform,C,[],25,Yes,"Tough to say whether the response sounded ""good"" being that ""good"" is subjective and I'm not clear on what the purpose of the conversations were. ",Female,English,Safari,Mac,900,1440,8.149133333333333,
1081,default,block1,sophia,projective,0.48,5308,reveal,29,reveal,C,[],25,Yes,"Tough to say whether the response sounded ""good"" being that ""good"" is subjective and I'm not clear on what the purpose of the conversations were. ",Female,English,Safari,Mac,900,1440,8.149133333333333,
1081,default,block1,josh,projective,0.49,4825,be_right,30,be_right,C,[],25,Yes,"Tough to say whether the response sounded ""good"" being that ""good"" is subjective and I'm not clear on what the purpose of the conversations were. ",Female,English,Safari,Mac,900,1440,8.149133333333333,
1081,default,block2,ballet,ai,1,10767,MC,32,MC,MC,[],25,Yes,"Tough to say whether the response sounded ""good"" being that ""good"" is subjective and I'm not clear on what the purpose of the conversations were. ",Female,English,Safari,Mac,900,1440,8.149133333333333,
1081,default,block2,isabella,ai,0.97,5787,know,33,know,C,[],25,Yes,"Tough to say whether the response sounded ""good"" being that ""good"" is subjective and I'm not clear on what the purpose of the conversations were. ",Female,English,Safari,Mac,900,1440,8.149133333333333,
1081,default,block2,owen,ai,0.97,6971,prove,34,prove,C,[],25,Yes,"Tough to say whether the response sounded ""good"" being that ""good"" is subjective and I'm not clear on what the purpose of the conversations were. ",Female,English,Safari,Mac,900,1440,8.149133333333333,
1081,default,block2,pizza,ai,0.99,5230,MC,35,MC,MC,[],25,Yes,"Tough to say whether the response sounded ""good"" being that ""good"" is subjective and I'm not clear on what the purpose of the conversations were. ",Female,English,Safari,Mac,900,1440,8.149133333333333,
1081,default,block2,emily,ai,1,5063,see,36,see,C,[],25,Yes,"Tough to say whether the response sounded ""good"" being that ""good"" is subjective and I'm not clear on what the purpose of the conversations were. ",Female,English,Safari,Mac,900,1440,8.149133333333333,
1081,default,block2,zoe,ai,0.98,4547,discover,37,discover,C,[],25,Yes,"Tough to say whether the response sounded ""good"" being that ""good"" is subjective and I'm not clear on what the purpose of the conversations were. ",Female,English,Safari,Mac,900,1440,8.149133333333333,
1081,default,block2,mary,ai,0.98,5001,be_annoyed,38,be_annoyed,C,[],25,Yes,"Tough to say whether the response sounded ""good"" being that ""good"" is subjective and I'm not clear on what the purpose of the conversations were. ",Female,English,Safari,Mac,900,1440,8.149133333333333,
1081,default,block2,frank,ai,0.97,4538,admit,39,admit,C,[],25,Yes,"Tough to say whether the response sounded ""good"" being that ""good"" is subjective and I'm not clear on what the purpose of the conversations were. ",Female,English,Safari,Mac,900,1440,8.149133333333333,
1081,default,block2,julian,ai,0.94,95751,think,40,think,C,[],25,Yes,"Tough to say whether the response sounded ""good"" being that ""good"" is subjective and I'm not clear on what the purpose of the conversations were. ",Female,English,Safari,Mac,900,1440,8.149133333333333,
1081,default,block2,josie,ai,0.99,7879,say,41,say,C,[],25,Yes,"Tough to say whether the response sounded ""good"" being that ""good"" is subjective and I'm not clear on what the purpose of the conversations were. ",Female,English,Safari,Mac,900,1440,8.149133333333333,
1081,default,block2,kids,ai,0.98,7664,MC,42,MC,MC,[],25,Yes,"Tough to say whether the response sounded ""good"" being that ""good"" is subjective and I'm not clear on what the purpose of the conversations were. ",Female,English,Safari,Mac,900,1440,8.149133333333333,
1081,default,block2,charley,ai,0.99,3791,suggest,43,suggest,C,[],25,Yes,"Tough to say whether the response sounded ""good"" being that ""good"" is subjective and I'm not clear on what the purpose of the conversations were. ",Female,English,Safari,Mac,900,1440,8.149133333333333,
1081,default,block2,grace,ai,0.97,6902,establish,44,establish,C,[],25,Yes,"Tough to say whether the response sounded ""good"" being that ""good"" is subjective and I'm not clear on what the purpose of the conversations were. ",Female,English,Safari,Mac,900,1440,8.149133333333333,
1081,default,block2,tony,ai,0.98,3784,demonstrate,45,demonstrate,C,[],25,Yes,"Tough to say whether the response sounded ""good"" being that ""good"" is subjective and I'm not clear on what the purpose of the conversations were. ",Female,English,Safari,Mac,900,1440,8.149133333333333,
1081,default,block2,garage,ai,0.98,4055,MC,46,MC,MC,[],25,Yes,"Tough to say whether the response sounded ""good"" being that ""good"" is subjective and I'm not clear on what the purpose of the conversations were. ",Female,English,Safari,Mac,900,1440,8.149133333333333,
1081,default,block2,danny,ai,0.99,5176,announce,47,announce,C,[],25,Yes,"Tough to say whether the response sounded ""good"" being that ""good"" is subjective and I'm not clear on what the purpose of the conversations were. ",Female,English,Safari,Mac,900,1440,8.149133333333333,
1081,default,block2,josh,ai,0.98,6225,be_right,48,be_right,C,[],25,Yes,"Tough to say whether the response sounded ""good"" being that ""good"" is subjective and I'm not clear on what the purpose of the conversations were. ",Female,English,Safari,Mac,900,1440,8.149133333333333,
1081,default,block2,muffins,ai,0.98,4292,MC,49,MC,MC,[],25,Yes,"Tough to say whether the response sounded ""good"" being that ""good"" is subjective and I'm not clear on what the purpose of the conversations were. ",Female,English,Safari,Mac,900,1440,8.149133333333333,
1081,default,block2,sophia,ai,0.97,5431,reveal,50,reveal,C,[],25,Yes,"Tough to say whether the response sounded ""good"" being that ""good"" is subjective and I'm not clear on what the purpose of the conversations were. ",Female,English,Safari,Mac,900,1440,8.149133333333333,
1081,default,block2,emma,ai,0.97,4659,inform,51,inform,C,[],25,Yes,"Tough to say whether the response sounded ""good"" being that ""good"" is subjective and I'm not clear on what the purpose of the conversations were. ",Female,English,Safari,Mac,900,1440,8.149133333333333,
1081,default,block2,hat,ai,0.98,3836,MC,52,MC,MC,[],25,Yes,"Tough to say whether the response sounded ""good"" being that ""good"" is subjective and I'm not clear on what the purpose of the conversations were. ",Female,English,Safari,Mac,900,1440,8.149133333333333,
1081,default,block2,mia,ai,0.99,3493,hear,53,hear,C,[],25,Yes,"Tough to say whether the response sounded ""good"" being that ""good"" is subjective and I'm not clear on what the purpose of the conversations were. ",Female,English,Safari,Mac,900,1440,8.149133333333333,
1081,default,block2,olivia,ai,0.99,2965,acknowledge,54,acknowledge,C,[],25,Yes,"Tough to say whether the response sounded ""good"" being that ""good"" is subjective and I'm not clear on what the purpose of the conversations were. ",Female,English,Safari,Mac,900,1440,8.149133333333333,
1081,default,block2,jackson,ai,0.97,4253,confess,55,confess,C,[],25,Yes,"Tough to say whether the response sounded ""good"" being that ""good"" is subjective and I'm not clear on what the purpose of the conversations were. ",Female,English,Safari,Mac,900,1440,8.149133333333333,
1081,default,block2,jon,ai,0.99,4452,pretend,56,pretend,C,[],25,Yes,"Tough to say whether the response sounded ""good"" being that ""good"" is subjective and I'm not clear on what the purpose of the conversations were. ",Female,English,Safari,Mac,900,1440,8.149133333333333,
1081,default,block2,jayden,ai,0.99,3609,confirm,57,confirm,C,[],25,Yes,"Tough to say whether the response sounded ""good"" being that ""good"" is subjective and I'm not clear on what the purpose of the conversations were. ",Female,English,Safari,Mac,900,1440,8.149133333333333,
1077,default,block1,josie,ai,0.99,65898,inform,5,inform,C,[],39,Yes,The study is really interesting,Male,English,Chrome,Windows,820,360,22.056566666666665,
1077,default,block1,charley,ai,0.98,123811,demonstrate,6,demonstrate,C,[],39,Yes,The study is really interesting,Male,English,Chrome,Windows,820,360,22.056566666666665,
1077,default,block1,isabella,ai,0.98,51095,know,7,know,C,[],39,Yes,The study is really interesting,Male,English,Chrome,Windows,820,360,22.056566666666665,
1077,default,block1,tony,ai,0.99,18138,discover,8,discover,C,[],39,Yes,The study is really interesting,Male,English,Chrome,Windows,820,360,22.056566666666665,
1077,default,block1,josh,ai,0.99,66840,confirm,9,confirm,C,[],39,Yes,The study is really interesting,Male,English,Chrome,Windows,820,360,22.056566666666665,
1077,default,block1,mia,ai,0.97,35308,be_annoyed,10,be_annoyed,C,[],39,Yes,The study is really interesting,Male,English,Chrome,Windows,820,360,22.056566666666665,
1077,default,block1,emily,ai,0.99,25541,suggest,11,suggest,C,[],39,Yes,The study is really interesting,Male,English,Chrome,Windows,820,360,22.056566666666665,
1077,default,block1,owen,ai,0.98,17534,announce,12,announce,C,[],39,Yes,The study is really interesting,Male,English,Chrome,Windows,820,360,22.056566666666665,
1077,default,block1,jon,ai,0.04,50088,pretend,13,pretend,C,[],39,Yes,The study is really interesting,Male,English,Chrome,Windows,820,360,22.056566666666665,
1077,default,block1,danny,ai,0.97,13904,prove,14,prove,C,[],39,Yes,The study is really interesting,Male,English,Chrome,Windows,820,360,22.056566666666665,
1077,default,block1,zoe,ai,0.98,21650,think,15,think,C,[],39,Yes,The study is really interesting,Male,English,Chrome,Windows,820,360,22.056566666666665,
1077,default,block1,garage,ai,0.99,40978,MC,16,MC,MC,[],39,Yes,The study is really interesting,Male,English,Chrome,Windows,820,360,22.056566666666665,
1077,default,block1,frank,ai,0.98,11548,admit,17,admit,C,[],39,Yes,The study is really interesting,Male,English,Chrome,Windows,820,360,22.056566666666665,
1077,default,block1,sophia,ai,0.98,9445,confess,18,confess,C,[],39,Yes,The study is really interesting,Male,English,Chrome,Windows,820,360,22.056566666666665,
1077,default,block1,jayden,ai,0.99,10122,say,19,say,C,[],39,Yes,The study is really interesting,Male,English,Chrome,Windows,820,360,22.056566666666665,
1077,default,block1,mary,ai,0.95,11249,see,20,see,C,[],39,Yes,The study is really interesting,Male,English,Chrome,Windows,820,360,22.056566666666665,
1077,default,block1,grace,ai,0.98,12571,establish,21,establish,C,[],39,Yes,The study is really interesting,Male,English,Chrome,Windows,820,360,22.056566666666665,
1077,default,block1,jackson,ai,0.98,12953,be_right,22,be_right,C,[],39,Yes,The study is really interesting,Male,English,Chrome,Windows,820,360,22.056566666666665,
1077,default,block1,emma,ai,0.99,12482,reveal,23,reveal,C,[],39,Yes,The study is really interesting,Male,English,Chrome,Windows,820,360,22.056566666666665,
1077,default,block1,hat,ai,0.99,25259,MC,24,MC,MC,[],39,Yes,The study is really interesting,Male,English,Chrome,Windows,820,360,22.056566666666665,
1077,default,block1,julian,ai,0.97,34127,hear,25,hear,C,[],39,Yes,The study is really interesting,Male,English,Chrome,Windows,820,360,22.056566666666665,
1077,default,block1,ballet,ai,0.03,117185,MC,26,MC,MC,[],39,Yes,The study is really interesting,Male,English,Chrome,Windows,820,360,22.056566666666665,
1077,default,block1,kids,ai,0.97,27992,MC,27,MC,MC,[],39,Yes,The study is really interesting,Male,English,Chrome,Windows,820,360,22.056566666666665,
1077,default,block1,olivia,ai,0.01,14078,acknowledge,28,acknowledge,C,[],39,Yes,The study is really interesting,Male,English,Chrome,Windows,820,360,22.056566666666665,
1077,default,block1,pizza,ai,0.03,32441,MC,29,MC,MC,[],39,Yes,The study is really interesting,Male,English,Chrome,Windows,820,360,22.056566666666665,
1077,default,block1,muffins,ai,0.98,11615,MC,30,MC,MC,[],39,Yes,The study is really interesting,Male,English,Chrome,Windows,820,360,22.056566666666665,
1077,default,block2,tony,projective,1,16972,discover,32,discover,C,[],39,Yes,The study is really interesting,Male,English,Chrome,Windows,820,360,22.056566666666665,
1077,default,block2,jon,projective,0.02,9123,pretend,33,pretend,C,[],39,Yes,The study is really interesting,Male,English,Chrome,Windows,820,360,22.056566666666665,
1077,default,block2,jayden,projective,0.99,9727,say,34,say,C,[],39,Yes,The study is really interesting,Male,English,Chrome,Windows,820,360,22.056566666666665,
1077,default,block2,charley,projective,0.04,13339,demonstrate,35,demonstrate,C,[],39,Yes,The study is really interesting,Male,English,Chrome,Windows,820,360,22.056566666666665,
1077,default,block2,isabella,projective,0.97,9925,know,36,know,C,[],39,Yes,The study is really interesting,Male,English,Chrome,Windows,820,360,22.056566666666665,
1077,default,block2,sophia,projective,0.99,10784,confess,37,confess,C,[],39,Yes,The study is really interesting,Male,English,Chrome,Windows,820,360,22.056566666666665,
1077,default,block2,josie,projective,0.98,6981,inform,38,inform,C,[],39,Yes,The study is really interesting,Male,English,Chrome,Windows,820,360,22.056566666666665,
1077,default,block2,emily,projective,0.99,6549,suggest,39,suggest,C,[],39,Yes,The study is really interesting,Male,English,Chrome,Windows,820,360,22.056566666666665,
1077,default,block2,jackson,projective,0.98,10587,be_right,40,be_right,C,[],39,Yes,The study is really interesting,Male,English,Chrome,Windows,820,360,22.056566666666665,
1077,default,block2,pizza,projective,0.98,11582,MC,41,MC,MC,[],39,Yes,The study is really interesting,Male,English,Chrome,Windows,820,360,22.056566666666665,
1077,default,block2,mary,projective,0,18965,see,42,see,C,[],39,Yes,The study is really interesting,Male,English,Chrome,Windows,820,360,22.056566666666665,
1077,default,block2,emma,projective,0.01,6857,reveal,43,reveal,C,[],39,Yes,The study is really interesting,Male,English,Chrome,Windows,820,360,22.056566666666665,
1077,default,block2,hat,projective,0.98,3788,MC,44,MC,MC,[],39,Yes,The study is really interesting,Male,English,Chrome,Windows,820,360,22.056566666666665,
1077,default,block2,owen,projective,0.01,2454,announce,45,announce,C,[],39,Yes,The study is really interesting,Male,English,Chrome,Windows,820,360,22.056566666666665,
1077,default,block2,josh,projective,0.04,8828,confirm,46,confirm,C,[],39,Yes,The study is really interesting,Male,English,Chrome,Windows,820,360,22.056566666666665,
1077,default,block2,zoe,projective,0.01,5485,think,47,think,C,[],39,Yes,The study is really interesting,Male,English,Chrome,Windows,820,360,22.056566666666665,
1077,default,block2,kids,projective,0.97,6546,MC,48,MC,MC,[],39,Yes,The study is really interesting,Male,English,Chrome,Windows,820,360,22.056566666666665,
1077,default,block2,frank,projective,0.01,13346,admit,49,admit,C,[],39,Yes,The study is really interesting,Male,English,Chrome,Windows,820,360,22.056566666666665,
1077,default,block2,danny,projective,0.04,5355,prove,50,prove,C,[],39,Yes,The study is really interesting,Male,English,Chrome,Windows,820,360,22.056566666666665,
1077,default,block2,mia,projective,0.05,5868,be_annoyed,51,be_annoyed,C,[],39,Yes,The study is really interesting,Male,English,Chrome,Windows,820,360,22.056566666666665,
1077,default,block2,muffins,projective,0.98,5344,MC,52,MC,MC,[],39,Yes,The study is really interesting,Male,English,Chrome,Windows,820,360,22.056566666666665,
1077,default,block2,olivia,projective,0.04,3110,acknowledge,53,acknowledge,C,[],39,Yes,The study is really interesting,Male,English,Chrome,Windows,820,360,22.056566666666665,
1077,default,block2,ballet,projective,0.98,3374,MC,54,MC,MC,[],39,Yes,The study is really interesting,Male,English,Chrome,Windows,820,360,22.056566666666665,
1077,default,block2,julian,projective,0.05,3912,hear,55,hear,C,[],39,Yes,The study is really interesting,Male,English,Chrome,Windows,820,360,22.056566666666665,
1077,default,block2,garage,projective,0.96,6716,MC,56,MC,MC,[],39,Yes,The study is really interesting,Male,English,Chrome,Windows,820,360,22.056566666666665,
1077,default,block2,grace,projective,0.01,6804,establish,57,establish,C,[],39,Yes,The study is really interesting,Male,English,Chrome,Windows,820,360,22.056566666666665,
1076,default,block1,isabella,projective,0.47,10859,admit,5,admit,C,[],19,Yes,,Female,English,Chrome,Mac,900,1440,8.526516666666666,
1076,default,block1,mary,projective,0.15,6072,be_right,6,be_right,C,[],19,Yes,,Female,English,Chrome,Mac,900,1440,8.526516666666666,
1076,default,block1,tony,projective,0.97,14279,know,7,know,C,[],19,Yes,,Female,English,Chrome,Mac,900,1440,8.526516666666666,
1076,default,block1,mia,projective,0.02,8695,say,8,say,C,[],19,Yes,,Female,English,Chrome,Mac,900,1440,8.526516666666666,
1076,default,block1,emily,projective,0.96,12189,hear,9,hear,C,[],19,Yes,,Female,English,Chrome,Mac,900,1440,8.526516666666666,
1076,default,block1,julian,projective,0.52,9065,confirm,10,confirm,C,[],19,Yes,,Female,English,Chrome,Mac,900,1440,8.526516666666666,
1076,default,block1,josie,projective,0.9,9787,demonstrate,11,demonstrate,C,[],19,Yes,,Female,English,Chrome,Mac,900,1440,8.526516666666666,
1076,default,block1,danny,projective,0.84,5539,acknowledge,12,acknowledge,C,[],19,Yes,,Female,English,Chrome,Mac,900,1440,8.526516666666666,
1076,default,block1,sophia,projective,0.97,5266,discover,13,discover,C,[],19,Yes,,Female,English,Chrome,Mac,900,1440,8.526516666666666,
1076,default,block1,kids,projective,0.99,11058,MC,14,MC,MC,[],19,Yes,,Female,English,Chrome,Mac,900,1440,8.526516666666666,
1076,default,block1,pizza,projective,0.98,6309,MC,15,MC,MC,[],19,Yes,,Female,English,Chrome,Mac,900,1440,8.526516666666666,
1076,default,block1,josh,projective,0.05,9611,pretend,16,pretend,C,[],19,Yes,,Female,English,Chrome,Mac,900,1440,8.526516666666666,
1076,default,block1,jon,projective,0.97,4701,inform,17,inform,C,[],19,Yes,,Female,English,Chrome,Mac,900,1440,8.526516666666666,
1076,default,block1,emma,projective,0.97,7016,announce,18,announce,C,[],19,Yes,,Female,English,Chrome,Mac,900,1440,8.526516666666666,
1076,default,block1,owen,projective,0.85,7272,be_annoyed,19,be_annoyed,C,[],19,Yes,,Female,English,Chrome,Mac,900,1440,8.526516666666666,
1076,default,block1,ballet,projective,0.98,5395,MC,20,MC,MC,[],19,Yes,,Female,English,Chrome,Mac,900,1440,8.526516666666666,
1076,default,block1,jayden,projective,0.92,7275,confess,21,confess,C,[],19,Yes,,Female,English,Chrome,Mac,900,1440,8.526516666666666,
1076,default,block1,jackson,projective,0.39,10188,prove,22,prove,C,[],19,Yes,,Female,English,Chrome,Mac,900,1440,8.526516666666666,
1076,default,block1,hat,projective,0.96,4849,MC,23,MC,MC,[],19,Yes,,Female,English,Chrome,Mac,900,1440,8.526516666666666,
1076,default,block1,olivia,projective,0.63,10635,suggest,24,suggest,C,[],19,Yes,,Female,English,Chrome,Mac,900,1440,8.526516666666666,
1076,default,block1,grace,projective,0.92,7336,reveal,25,reveal,C,[],19,Yes,,Female,English,Chrome,Mac,900,1440,8.526516666666666,
1076,default,block1,garage,projective,1,6061,MC,26,MC,MC,[],19,Yes,,Female,English,Chrome,Mac,900,1440,8.526516666666666,
1076,default,block1,frank,projective,0.08,6169,think,27,think,C,[],19,Yes,,Female,English,Chrome,Mac,900,1440,8.526516666666666,
1076,default,block1,muffins,projective,0.97,4174,MC,28,MC,MC,[],19,Yes,,Female,English,Chrome,Mac,900,1440,8.526516666666666,
1076,default,block1,charley,projective,0.61,6920,establish,29,establish,C,[],19,Yes,,Female,English,Chrome,Mac,900,1440,8.526516666666666,
1076,default,block1,zoe,projective,0.92,9402,see,30,see,C,[],19,Yes,,Female,English,Chrome,Mac,900,1440,8.526516666666666,
1076,default,block2,josh,ai,0.22,12170,pretend,32,pretend,C,[],19,Yes,,Female,English,Chrome,Mac,900,1440,8.526516666666666,
1076,default,block2,owen,ai,0.56,6424,be_annoyed,33,be_annoyed,C,[],19,Yes,,Female,English,Chrome,Mac,900,1440,8.526516666666666,
1076,default,block2,garage,ai,0.97,7816,MC,34,MC,MC,[],19,Yes,,Female,English,Chrome,Mac,900,1440,8.526516666666666,
1076,default,block2,tony,ai,0.82,8960,know,35,know,C,[],19,Yes,,Female,English,Chrome,Mac,900,1440,8.526516666666666,
1076,default,block2,jon,ai,0.97,6642,inform,36,inform,C,[],19,Yes,,Female,English,Chrome,Mac,900,1440,8.526516666666666,
1076,default,block2,charley,ai,0.8,8250,establish,37,establish,C,[],19,Yes,,Female,English,Chrome,Mac,900,1440,8.526516666666666,
1076,default,block2,frank,ai,0.95,4054,think,38,think,C,[],19,Yes,,Female,English,Chrome,Mac,900,1440,8.526516666666666,
1076,default,block2,emily,ai,0.89,4110,hear,39,hear,C,[],19,Yes,,Female,English,Chrome,Mac,900,1440,8.526516666666666,
1076,default,block2,grace,ai,0.96,11119,reveal,40,reveal,C,[],19,Yes,,Female,English,Chrome,Mac,900,1440,8.526516666666666,
1076,default,block2,sophia,ai,0.95,7644,discover,41,discover,C,[],19,Yes,,Female,English,Chrome,Mac,900,1440,8.526516666666666,
1076,default,block2,ballet,ai,0.96,6359,MC,42,MC,MC,[],19,Yes,,Female,English,Chrome,Mac,900,1440,8.526516666666666,
1076,default,block2,josie,ai,0.76,29550,demonstrate,43,demonstrate,C,[],19,Yes,,Female,English,Chrome,Mac,900,1440,8.526516666666666,
1076,default,block2,kids,ai,0.96,3990,MC,44,MC,MC,[],19,Yes,,Female,English,Chrome,Mac,900,1440,8.526516666666666,
1076,default,block2,julian,ai,0.96,23489,confirm,45,confirm,C,[],19,Yes,,Female,English,Chrome,Mac,900,1440,8.526516666666666,
1076,default,block2,zoe,ai,0.88,9640,see,46,see,C,[],19,Yes,,Female,English,Chrome,Mac,900,1440,8.526516666666666,
1076,default,block2,olivia,ai,0.47,8078,suggest,47,suggest,C,[],19,Yes,,Female,English,Chrome,Mac,900,1440,8.526516666666666,
1076,default,block2,jayden,ai,0.76,3496,confess,48,confess,C,[],19,Yes,,Female,English,Chrome,Mac,900,1440,8.526516666666666,
1076,default,block2,danny,ai,0.98,4480,acknowledge,49,acknowledge,C,[],19,Yes,,Female,English,Chrome,Mac,900,1440,8.526516666666666,
1076,default,block2,emma,ai,0.84,6377,announce,50,announce,C,[],19,Yes,,Female,English,Chrome,Mac,900,1440,8.526516666666666,
1076,default,block2,muffins,ai,0.19,11871,MC,51,MC,MC,[],19,Yes,,Female,English,Chrome,Mac,900,1440,8.526516666666666,
1076,default,block2,hat,ai,0.8,5073,MC,52,MC,MC,[],19,Yes,,Female,English,Chrome,Mac,900,1440,8.526516666666666,
1076,default,block2,mia,ai,0.16,10008,say,53,say,C,[],19,Yes,,Female,English,Chrome,Mac,900,1440,8.526516666666666,
1076,default,block2,pizza,ai,0.55,6324,MC,54,MC,MC,[],19,Yes,,Female,English,Chrome,Mac,900,1440,8.526516666666666,
1076,default,block2,isabella,ai,0.81,9711,admit,55,admit,C,[],19,Yes,,Female,English,Chrome,Mac,900,1440,8.526516666666666,
1076,default,block2,jackson,ai,0.05,5336,prove,56,prove,C,[],19,Yes,,Female,English,Chrome,Mac,900,1440,8.526516666666666,
1076,default,block2,mary,ai,0.96,5639,be_right,57,be_right,C,[],19,Yes,,Female,English,Chrome,Mac,900,1440,8.526516666666666,
1064,default,block1,jon,ai,0.62,8495,confess,5,confess,C,[],31,Yes,Taylor 8.12.21 11:30AM,Female,English,Chrome,Windows,1080,1920,10.474066666666667,
1064,default,block1,mary,ai,0.46,4283,prove,6,prove,C,[],31,Yes,Taylor 8.12.21 11:30AM,Female,English,Chrome,Windows,1080,1920,10.474066666666667,
1064,default,block1,charley,ai,0.64,2999,confirm,7,confirm,C,[],31,Yes,Taylor 8.12.21 11:30AM,Female,English,Chrome,Windows,1080,1920,10.474066666666667,
1064,default,block1,frank,ai,0.2,3480,reveal,8,reveal,C,[],31,Yes,Taylor 8.12.21 11:30AM,Female,English,Chrome,Windows,1080,1920,10.474066666666667,
1064,default,block1,sophia,ai,0.59,1777,establish,9,establish,C,[],31,Yes,Taylor 8.12.21 11:30AM,Female,English,Chrome,Windows,1080,1920,10.474066666666667,
1064,default,block1,isabella,ai,0.88,2311,pretend,10,pretend,C,[],31,Yes,Taylor 8.12.21 11:30AM,Female,English,Chrome,Windows,1080,1920,10.474066666666667,
1064,default,block1,olivia,ai,0.41,7545,acknowledge,11,acknowledge,C,[],31,Yes,Taylor 8.12.21 11:30AM,Female,English,Chrome,Windows,1080,1920,10.474066666666667,
1064,default,block1,grace,ai,0.68,7088,demonstrate,12,demonstrate,C,[],31,Yes,Taylor 8.12.21 11:30AM,Female,English,Chrome,Windows,1080,1920,10.474066666666667,
1064,default,block1,owen,ai,0.58,1589,announce,13,announce,C,[],31,Yes,Taylor 8.12.21 11:30AM,Female,English,Chrome,Windows,1080,1920,10.474066666666667,
1064,default,block1,pizza,ai,0.36,3031,MC,14,MC,MC,[],31,Yes,Taylor 8.12.21 11:30AM,Female,English,Chrome,Windows,1080,1920,10.474066666666667,
1064,default,block1,ballet,ai,0.84,2407,MC,15,MC,MC,[],31,Yes,Taylor 8.12.21 11:30AM,Female,English,Chrome,Windows,1080,1920,10.474066666666667,
1064,default,block1,josh,ai,0.57,4792,suggest,16,suggest,C,[],31,Yes,Taylor 8.12.21 11:30AM,Female,English,Chrome,Windows,1080,1920,10.474066666666667,
1064,default,block1,josie,ai,0.72,2596,admit,17,admit,C,[],31,Yes,Taylor 8.12.21 11:30AM,Female,English,Chrome,Windows,1080,1920,10.474066666666667,
1064,default,block1,emma,ai,0.56,1762,discover,18,discover,C,[],31,Yes,Taylor 8.12.21 11:30AM,Female,English,Chrome,Windows,1080,1920,10.474066666666667,
1064,default,block1,danny,ai,0.38,2910,be_annoyed,19,be_annoyed,C,[],31,Yes,Taylor 8.12.21 11:30AM,Female,English,Chrome,Windows,1080,1920,10.474066666666667,
1064,default,block1,mia,ai,0.71,3052,see,20,see,C,[],31,Yes,Taylor 8.12.21 11:30AM,Female,English,Chrome,Windows,1080,1920,10.474066666666667,
1064,default,block1,julian,ai,0.54,2565,say,21,say,C,[],31,Yes,Taylor 8.12.21 11:30AM,Female,English,Chrome,Windows,1080,1920,10.474066666666667,
1064,default,block1,emily,ai,0.86,2355,hear,22,hear,C,[],31,Yes,Taylor 8.12.21 11:30AM,Female,English,Chrome,Windows,1080,1920,10.474066666666667,
1064,default,block1,muffins,ai,0.48,3885,MC,23,MC,MC,[],31,Yes,Taylor 8.12.21 11:30AM,Female,English,Chrome,Windows,1080,1920,10.474066666666667,
1064,default,block1,kids,ai,0.33,2987,MC,24,MC,MC,[],31,Yes,Taylor 8.12.21 11:30AM,Female,English,Chrome,Windows,1080,1920,10.474066666666667,
1064,default,block1,jackson,ai,0.6,2691,know,25,know,C,[],31,Yes,Taylor 8.12.21 11:30AM,Female,English,Chrome,Windows,1080,1920,10.474066666666667,
1064,default,block1,garage,ai,0.86,4567,MC,26,MC,MC,[],31,Yes,Taylor 8.12.21 11:30AM,Female,English,Chrome,Windows,1080,1920,10.474066666666667,
1064,default,block1,hat,ai,0.5,3759,MC,27,MC,MC,[],31,Yes,Taylor 8.12.21 11:30AM,Female,English,Chrome,Windows,1080,1920,10.474066666666667,
1064,default,block1,tony,ai,0.61,3246,inform,28,inform,C,[],31,Yes,Taylor 8.12.21 11:30AM,Female,English,Chrome,Windows,1080,1920,10.474066666666667,
1064,default,block1,jayden,ai,0.44,2580,be_right,29,be_right,C,[],31,Yes,Taylor 8.12.21 11:30AM,Female,English,Chrome,Windows,1080,1920,10.474066666666667,
1064,default,block1,zoe,ai,0.72,2093,think,30,think,C,[],31,Yes,Taylor 8.12.21 11:30AM,Female,English,Chrome,Windows,1080,1920,10.474066666666667,
1064,default,block2,josie,projective,0.52,2099,admit,32,admit,C,[],31,Yes,Taylor 8.12.21 11:30AM,Female,English,Chrome,Windows,1080,1920,10.474066666666667,
1064,default,block2,kids,projective,0.26,3008,MC,33,MC,MC,[],31,Yes,Taylor 8.12.21 11:30AM,Female,English,Chrome,Windows,1080,1920,10.474066666666667,
1064,default,block2,danny,projective,0.61,4589,be_annoyed,34,be_annoyed,C,[],31,Yes,Taylor 8.12.21 11:30AM,Female,English,Chrome,Windows,1080,1920,10.474066666666667,
1064,default,block2,ballet,projective,0.84,4080,MC,35,MC,MC,[],31,Yes,Taylor 8.12.21 11:30AM,Female,English,Chrome,Windows,1080,1920,10.474066666666667,
1064,default,block2,frank,projective,0.53,2812,reveal,36,reveal,C,[],31,Yes,Taylor 8.12.21 11:30AM,Female,English,Chrome,Windows,1080,1920,10.474066666666667,
1064,default,block2,garage,projective,0.64,2647,MC,37,MC,MC,[],31,Yes,Taylor 8.12.21 11:30AM,Female,English,Chrome,Windows,1080,1920,10.474066666666667,
1064,default,block2,grace,projective,0.28,1845,demonstrate,38,demonstrate,C,[],31,Yes,Taylor 8.12.21 11:30AM,Female,English,Chrome,Windows,1080,1920,10.474066666666667,
1064,default,block2,tony,projective,0.58,1890,inform,39,inform,C,[],31,Yes,Taylor 8.12.21 11:30AM,Female,English,Chrome,Windows,1080,1920,10.474066666666667,
1064,default,block2,zoe,projective,0.81,4140,think,40,think,C,[],31,Yes,Taylor 8.12.21 11:30AM,Female,English,Chrome,Windows,1080,1920,10.474066666666667,
1064,default,block2,pizza,projective,0.57,3869,MC,41,MC,MC,[],31,Yes,Taylor 8.12.21 11:30AM,Female,English,Chrome,Windows,1080,1920,10.474066666666667,
1064,default,block2,emily,projective,0.53,5452,hear,42,hear,C,[],31,Yes,Taylor 8.12.21 11:30AM,Female,English,Chrome,Windows,1080,1920,10.474066666666667,
1064,default,block2,jon,projective,0.72,2242,confess,43,confess,C,[],31,Yes,Taylor 8.12.21 11:30AM,Female,English,Chrome,Windows,1080,1920,10.474066666666667,
1064,default,block2,isabella,projective,0.92,3212,pretend,44,pretend,C,[],31,Yes,Taylor 8.12.21 11:30AM,Female,English,Chrome,Windows,1080,1920,10.474066666666667,
1064,default,block2,emma,projective,0.42,4138,discover,45,discover,C,[],31,Yes,Taylor 8.12.21 11:30AM,Female,English,Chrome,Windows,1080,1920,10.474066666666667,
1064,default,block2,olivia,projective,0.41,2115,acknowledge,46,acknowledge,C,[],31,Yes,Taylor 8.12.21 11:30AM,Female,English,Chrome,Windows,1080,1920,10.474066666666667,
1064,default,block2,mia,projective,0.76,2866,see,47,see,C,[],31,Yes,Taylor 8.12.21 11:30AM,Female,English,Chrome,Windows,1080,1920,10.474066666666667,
1064,default,block2,sophia,projective,0.54,2781,establish,48,establish,C,[],31,Yes,Taylor 8.12.21 11:30AM,Female,English,Chrome,Windows,1080,1920,10.474066666666667,
1064,default,block2,josh,projective,0.42,2219,suggest,49,suggest,C,[],31,Yes,Taylor 8.12.21 11:30AM,Female,English,Chrome,Windows,1080,1920,10.474066666666667,
1064,default,block2,hat,projective,0.75,2572,MC,50,MC,MC,[],31,Yes,Taylor 8.12.21 11:30AM,Female,English,Chrome,Windows,1080,1920,10.474066666666667,
1064,default,block2,charley,projective,0.54,2437,confirm,51,confirm,C,[],31,Yes,Taylor 8.12.21 11:30AM,Female,English,Chrome,Windows,1080,1920,10.474066666666667,
1064,default,block2,jackson,projective,0.55,2116,know,52,know,C,[],31,Yes,Taylor 8.12.21 11:30AM,Female,English,Chrome,Windows,1080,1920,10.474066666666667,
1064,default,block2,julian,projective,0.7,2324,say,53,say,C,[],31,Yes,Taylor 8.12.21 11:30AM,Female,English,Chrome,Windows,1080,1920,10.474066666666667,
1064,default,block2,mary,projective,0.59,3060,prove,54,prove,C,[],31,Yes,Taylor 8.12.21 11:30AM,Female,English,Chrome,Windows,1080,1920,10.474066666666667,
1064,default,block2,jayden,projective,0.31,2077,be_right,55,be_right,C,[],31,Yes,Taylor 8.12.21 11:30AM,Female,English,Chrome,Windows,1080,1920,10.474066666666667,
1064,default,block2,owen,projective,0.9,2753,announce,56,announce,C,[],31,Yes,Taylor 8.12.21 11:30AM,Female,English,Chrome,Windows,1080,1920,10.474066666666667,
1064,default,block2,muffins,projective,0.63,4208,MC,57,MC,MC,[],31,Yes,Taylor 8.12.21 11:30AM,Female,English,Chrome,Windows,1080,1920,10.474066666666667,
1079,default,block1,jayden,ai,0.26,8967,discover,5,discover,C,[],21,Yes,,Female,English,Safari,Mac,900,1440,7.83705,
1079,default,block1,garage,ai,0.18,10894,MC,6,MC,MC,[],21,Yes,,Female,English,Safari,Mac,900,1440,7.83705,
1079,default,block1,jackson,ai,0.61,8234,confess,7,confess,C,[],21,Yes,,Female,English,Safari,Mac,900,1440,7.83705,
1079,default,block1,zoe,ai,0.55,6681,hear,8,hear,C,[],21,Yes,,Female,English,Safari,Mac,900,1440,7.83705,
1079,default,block1,isabella,ai,0.18,19852,confirm,9,confirm,C,[],21,Yes,,Female,English,Safari,Mac,900,1440,7.83705,
1079,default,block1,owen,ai,0.8,8388,know,10,know,C,[],21,Yes,,Female,English,Safari,Mac,900,1440,7.83705,
1079,default,block1,olivia,ai,0.29,41452,admit,11,admit,C,[],21,Yes,,Female,English,Safari,Mac,900,1440,7.83705,
1079,default,block1,grace,ai,0.22,12692,pretend,12,pretend,C,[],21,Yes,,Female,English,Safari,Mac,900,1440,7.83705,
1079,default,block1,muffins,ai,0.19,8417,MC,13,MC,MC,[],21,Yes,,Female,English,Safari,Mac,900,1440,7.83705,
1079,default,block1,tony,ai,0.05,6278,say,14,say,C,[],21,Yes,,Female,English,Safari,Mac,900,1440,7.83705,
1079,default,block1,mary,ai,0.84,7405,establish,15,establish,C,[],21,Yes,,Female,English,Safari,Mac,900,1440,7.83705,
1079,default,block1,josie,ai,0.47,5596,see,16,see,C,[],21,Yes,,Female,English,Safari,Mac,900,1440,7.83705,
1079,default,block1,julian,ai,0.58,5889,acknowledge,17,acknowledge,C,[],21,Yes,,Female,English,Safari,Mac,900,1440,7.83705,
1079,default,block1,kids,ai,0.13,5105,MC,18,MC,MC,[],21,Yes,,Female,English,Safari,Mac,900,1440,7.83705,
1079,default,block1,mia,ai,0.35,10584,prove,19,prove,C,[],21,Yes,,Female,English,Safari,Mac,900,1440,7.83705,
1079,default,block1,josh,ai,0.36,8389,demonstrate,20,demonstrate,C,[],21,Yes,,Female,English,Safari,Mac,900,1440,7.83705,
1079,default,block1,hat,ai,0.09,8828,MC,21,MC,MC,[],21,Yes,,Female,English,Safari,Mac,900,1440,7.83705,
1079,default,block1,charley,ai,0.68,7809,be_annoyed,22,be_annoyed,C,[],21,Yes,,Female,English,Safari,Mac,900,1440,7.83705,
1079,default,block1,jon,ai,0.22,5929,announce,23,announce,C,[],21,Yes,,Female,English,Safari,Mac,900,1440,7.83705,
1079,default,block1,ballet,ai,0.48,5481,MC,24,MC,MC,[],21,Yes,,Female,English,Safari,Mac,900,1440,7.83705,
1079,default,block1,frank,ai,0.61,6545,be_right,25,be_right,C,[],21,Yes,,Female,English,Safari,Mac,900,1440,7.83705,
1079,default,block1,sophia,ai,0.6,10274,think,26,think,C,[],21,Yes,,Female,English,Safari,Mac,900,1440,7.83705,
1079,default,block1,pizza,ai,0.28,4838,MC,27,MC,MC,[],21,Yes,,Female,English,Safari,Mac,900,1440,7.83705,
1079,default,block1,emma,ai,0.26,10358,inform,28,inform,C,[],21,Yes,,Female,English,Safari,Mac,900,1440,7.83705,
1079,default,block1,emily,ai,0.67,7116,suggest,29,suggest,C,[],21,Yes,,Female,English,Safari,Mac,900,1440,7.83705,
1079,default,block1,danny,ai,0.61,5437,reveal,30,reveal,C,[],21,Yes,,Female,English,Safari,Mac,900,1440,7.83705,
1079,default,block2,tony,projective,0.08,11260,say,32,say,C,[],21,Yes,,Female,English,Safari,Mac,900,1440,7.83705,
1079,default,block2,garage,projective,0.97,5925,MC,33,MC,MC,[],21,Yes,,Female,English,Safari,Mac,900,1440,7.83705,
1079,default,block2,isabella,projective,0.28,7429,confirm,34,confirm,C,[],21,Yes,,Female,English,Safari,Mac,900,1440,7.83705,
1079,default,block2,emily,projective,0.2,6251,suggest,35,suggest,C,[],21,Yes,,Female,English,Safari,Mac,900,1440,7.83705,
1079,default,block2,mary,projective,0.06,4635,establish,36,establish,C,[],21,Yes,,Female,English,Safari,Mac,900,1440,7.83705,
1079,default,block2,sophia,projective,0.12,9766,think,37,think,C,[],21,Yes,,Female,English,Safari,Mac,900,1440,7.83705,
1079,default,block2,julian,projective,0.97,6163,acknowledge,38,acknowledge,C,[],21,Yes,,Female,English,Safari,Mac,900,1440,7.83705,
1079,default,block2,emma,projective,0.7,5957,inform,39,inform,C,[],21,Yes,,Female,English,Safari,Mac,900,1440,7.83705,
1079,default,block2,danny,projective,0.94,5432,reveal,40,reveal,C,[],21,Yes,,Female,English,Safari,Mac,900,1440,7.83705,
1079,default,block2,hat,projective,1,4562,MC,41,MC,MC,[],21,Yes,,Female,English,Safari,Mac,900,1440,7.83705,
1079,default,block2,frank,projective,0.37,5029,be_right,42,be_right,C,[],21,Yes,,Female,English,Safari,Mac,900,1440,7.83705,
1079,default,block2,ballet,projective,0.98,4511,MC,43,MC,MC,[],21,Yes,,Female,English,Safari,Mac,900,1440,7.83705,
1079,default,block2,mia,projective,0.64,13634,prove,44,prove,C,[],21,Yes,,Female,English,Safari,Mac,900,1440,7.83705,
1079,default,block2,olivia,projective,0.85,4065,admit,45,admit,C,[],21,Yes,,Female,English,Safari,Mac,900,1440,7.83705,
1079,default,block2,owen,projective,0.82,4417,know,46,know,C,[],21,Yes,,Female,English,Safari,Mac,900,1440,7.83705,
1079,default,block2,charley,projective,0.97,5182,be_annoyed,47,be_annoyed,C,[],21,Yes,,Female,English,Safari,Mac,900,1440,7.83705,
1079,default,block2,jon,projective,0.98,4201,announce,48,announce,C,[],21,Yes,,Female,English,Safari,Mac,900,1440,7.83705,
1079,default,block2,kids,projective,0.95,4222,MC,49,MC,MC,[],21,Yes,,Female,English,Safari,Mac,900,1440,7.83705,
1079,default,block2,pizza,projective,0.97,3551,MC,50,MC,MC,[],21,Yes,,Female,English,Safari,Mac,900,1440,7.83705,
1079,default,block2,josie,projective,0.89,4023,see,51,see,C,[],21,Yes,,Female,English,Safari,Mac,900,1440,7.83705,
1079,default,block2,grace,projective,0.49,11958,pretend,52,pretend,C,[],21,Yes,,Female,English,Safari,Mac,900,1440,7.83705,
1079,default,block2,jackson,projective,0.98,4596,confess,53,confess,C,[],21,Yes,,Female,English,Safari,Mac,900,1440,7.83705,
1079,default,block2,muffins,projective,0.99,3229,MC,54,MC,MC,[],21,Yes,,Female,English,Safari,Mac,900,1440,7.83705,
1079,default,block2,zoe,projective,0.98,5056,hear,55,hear,C,[],21,Yes,,Female,English,Safari,Mac,900,1440,7.83705,
1079,default,block2,josh,projective,0.99,4433,demonstrate,56,demonstrate,C,[],21,Yes,,Female,English,Safari,Mac,900,1440,7.83705,
1079,default,block2,jayden,projective,0.97,4632,discover,57,discover,C,[],21,Yes,,Female,English,Safari,Mac,900,1440,7.83705,
1078,default,block1,jon,ai,0.2,22650,demonstrate,5,demonstrate,C,[],32,Yes,,Male,english,Chrome,Windows,768,1366,16.535466666666668,
1078,default,block1,emma,ai,0.68,15470,say,6,say,C,[],32,Yes,,Male,english,Chrome,Windows,768,1366,16.535466666666668,
1078,default,block1,frank,ai,0.75,12118,reveal,7,reveal,C,[],32,Yes,,Male,english,Chrome,Windows,768,1366,16.535466666666668,
1078,default,block1,charley,ai,0.95,17496,be_annoyed,8,be_annoyed,C,[],32,Yes,,Male,english,Chrome,Windows,768,1366,16.535466666666668,
1078,default,block1,danny,ai,0.8,72081,see,9,see,C,[],32,Yes,,Male,english,Chrome,Windows,768,1366,16.535466666666668,
1078,default,block1,josh,ai,0.56,8566,admit,10,admit,C,[],32,Yes,,Male,english,Chrome,Windows,768,1366,16.535466666666668,
1078,default,block1,josie,ai,0.76,14589,hear,11,hear,C,[],32,Yes,,Male,english,Chrome,Windows,768,1366,16.535466666666668,
1078,default,block1,mary,ai,0.65,7676,inform,12,inform,C,[],32,Yes,,Male,english,Chrome,Windows,768,1366,16.535466666666668,
1078,default,block1,mia,ai,0.57,66538,confirm,13,confirm,C,[],32,Yes,,Male,english,Chrome,Windows,768,1366,16.535466666666668,
1078,default,block1,garage,ai,0.09,25694,MC,14,MC,MC,[],32,Yes,,Male,english,Chrome,Windows,768,1366,16.535466666666668,
1078,default,block1,julian,ai,0.42,25549,announce,15,announce,C,[],32,Yes,,Male,english,Chrome,Windows,768,1366,16.535466666666668,
1078,default,block1,olivia,ai,0.54,9775,prove,16,prove,C,[],32,Yes,,Male,english,Chrome,Windows,768,1366,16.535466666666668,
1078,default,block1,owen,ai,0.75,12612,acknowledge,17,acknowledge,C,[],32,Yes,,Male,english,Chrome,Windows,768,1366,16.535466666666668,
1078,default,block1,muffins,ai,0.5,6568,MC,18,MC,MC,[],32,Yes,,Male,english,Chrome,Windows,768,1366,16.535466666666668,
1078,default,block1,ballet,ai,0.82,6836,MC,19,MC,MC,[],32,Yes,,Male,english,Chrome,Windows,768,1366,16.535466666666668,
1078,default,block1,jayden,ai,0.9,5331,discover,20,discover,C,[],32,Yes,,Male,english,Chrome,Windows,768,1366,16.535466666666668,
1078,default,block1,grace,ai,0.12,63996,suggest,21,suggest,C,[],32,Yes,,Male,english,Chrome,Windows,768,1366,16.535466666666668,
1078,default,block1,zoe,ai,0.13,10764,pretend,22,pretend,C,[],32,Yes,,Male,english,Chrome,Windows,768,1366,16.535466666666668,
1078,default,block1,emily,ai,0.47,10438,confess,23,confess,C,[],32,Yes,,Male,english,Chrome,Windows,768,1366,16.535466666666668,
1078,default,block1,hat,ai,0.8,8536,MC,24,MC,MC,[],32,Yes,,Male,english,Chrome,Windows,768,1366,16.535466666666668,
1078,default,block1,kids,ai,0.79,12849,MC,25,MC,MC,[],32,Yes,,Male,english,Chrome,Windows,768,1366,16.535466666666668,
1078,default,block1,pizza,ai,0.78,11721,MC,26,MC,MC,[],32,Yes,,Male,english,Chrome,Windows,768,1366,16.535466666666668,
1078,default,block1,tony,ai,0.17,10516,think,27,think,C,[],32,Yes,,Male,english,Chrome,Windows,768,1366,16.535466666666668,
1078,default,block1,isabella,ai,0.75,7409,be_right,28,be_right,C,[],32,Yes,,Male,english,Chrome,Windows,768,1366,16.535466666666668,
1078,default,block1,sophia,ai,0.75,7447,know,29,know,C,[],32,Yes,,Male,english,Chrome,Windows,768,1366,16.535466666666668,
1078,default,block1,jackson,ai,0.56,67375,establish,30,establish,C,[],32,Yes,,Male,english,Chrome,Windows,768,1366,16.535466666666668,
1078,default,block2,kids,projective,0.82,9760,MC,32,MC,MC,[],32,Yes,,Male,english,Chrome,Windows,768,1366,16.535466666666668,
1078,default,block2,zoe,projective,0.45,9734,pretend,33,pretend,C,[],32,Yes,,Male,english,Chrome,Windows,768,1366,16.535466666666668,
1078,default,block2,mary,projective,0.85,27901,inform,34,inform,C,[],32,Yes,,Male,english,Chrome,Windows,768,1366,16.535466666666668,
1078,default,block2,pizza,projective,0.86,6946,MC,35,MC,MC,[],32,Yes,,Male,english,Chrome,Windows,768,1366,16.535466666666668,
1078,default,block2,jayden,projective,0.93,13747,discover,36,discover,C,[],32,Yes,,Male,english,Chrome,Windows,768,1366,16.535466666666668,
1078,default,block2,mia,projective,0.81,10208,confirm,37,confirm,C,[],32,Yes,,Male,english,Chrome,Windows,768,1366,16.535466666666668,
1078,default,block2,muffins,projective,0.91,7183,MC,38,MC,MC,[],32,Yes,,Male,english,Chrome,Windows,768,1366,16.535466666666668,
1078,default,block2,josh,projective,0.98,9032,admit,39,admit,C,[],32,Yes,,Male,english,Chrome,Windows,768,1366,16.535466666666668,
1078,default,block2,ballet,projective,0.92,11394,MC,40,MC,MC,[],32,Yes,,Male,english,Chrome,Windows,768,1366,16.535466666666668,
1078,default,block2,tony,projective,0.26,10554,think,41,think,C,[],32,Yes,,Male,english,Chrome,Windows,768,1366,16.535466666666668,
1078,default,block2,danny,projective,0.79,8764,see,42,see,C,[],32,Yes,,Male,english,Chrome,Windows,768,1366,16.535466666666668,
1078,default,block2,owen,projective,0.51,11790,acknowledge,43,acknowledge,C,[],32,Yes,,Male,english,Chrome,Windows,768,1366,16.535466666666668,
1078,default,block2,garage,projective,0.82,6065,MC,44,MC,MC,[],32,Yes,,Male,english,Chrome,Windows,768,1366,16.535466666666668,
1078,default,block2,sophia,projective,0.91,10030,know,45,know,C,[],32,Yes,,Male,english,Chrome,Windows,768,1366,16.535466666666668,
1078,default,block2,emma,projective,0.15,8051,say,46,say,C,[],32,Yes,,Male,english,Chrome,Windows,768,1366,16.535466666666668,
1078,default,block2,josie,projective,0.94,34224,hear,47,hear,C,[],32,Yes,,Male,english,Chrome,Windows,768,1366,16.535466666666668,
1078,default,block2,frank,projective,0.82,4629,reveal,48,reveal,C,[],32,Yes,,Male,english,Chrome,Windows,768,1366,16.535466666666668,
1078,default,block2,olivia,projective,0.58,7993,prove,49,prove,C,[],32,Yes,,Male,english,Chrome,Windows,768,1366,16.535466666666668,
1078,default,block2,isabella,projective,0.12,6390,be_right,50,be_right,C,[],32,Yes,,Male,english,Chrome,Windows,768,1366,16.535466666666668,
1078,default,block2,hat,projective,0.9,13808,MC,51,MC,MC,[],32,Yes,,Male,english,Chrome,Windows,768,1366,16.535466666666668,
1078,default,block2,jackson,projective,0.26,36267,establish,52,establish,C,[],32,Yes,,Male,english,Chrome,Windows,768,1366,16.535466666666668,
1078,default,block2,jon,projective,0.36,9022,demonstrate,53,demonstrate,C,[],32,Yes,,Male,english,Chrome,Windows,768,1366,16.535466666666668,
1078,default,block2,emily,projective,0.76,8290,confess,54,confess,C,[],32,Yes,,Male,english,Chrome,Windows,768,1366,16.535466666666668,
1078,default,block2,charley,projective,0.91,7636,be_annoyed,55,be_annoyed,C,[],32,Yes,,Male,english,Chrome,Windows,768,1366,16.535466666666668,
1078,default,block2,julian,projective,0.93,8339,announce,56,announce,C,[],32,Yes,,Male,english,Chrome,Windows,768,1366,16.535466666666668,
1078,default,block2,grace,projective,0.15,6256,suggest,57,suggest,C,[],32,Yes,,Male,english,Chrome,Windows,768,1366,16.535466666666668,
1080,default,block1,garage,projective,1,17040,MC,5,MC,MC,[],20,Yes,,Female,english,Chrome,Windows,900,1600,7.406416666666667,
1080,default,block1,julian,projective,0.7,20394,know,6,know,C,[],20,Yes,,Female,english,Chrome,Windows,900,1600,7.406416666666667,
1080,default,block1,josh,projective,0.69,15892,confess,7,confess,C,[],20,Yes,,Female,english,Chrome,Windows,900,1600,7.406416666666667,
1080,default,block1,frank,projective,0.71,24715,think,8,think,C,[],20,Yes,,Female,english,Chrome,Windows,900,1600,7.406416666666667,
1080,default,block1,kids,projective,1,9303,MC,9,MC,MC,[],20,Yes,,Female,english,Chrome,Windows,900,1600,7.406416666666667,
1080,default,block1,pizza,projective,1,7138,MC,10,MC,MC,[],20,Yes,,Female,english,Chrome,Windows,900,1600,7.406416666666667,
1080,default,block1,mary,projective,0.2,8529,confirm,11,confirm,C,[],20,Yes,,Female,english,Chrome,Windows,900,1600,7.406416666666667,
1080,default,block1,sophia,projective,0.32,8734,pretend,12,pretend,C,[],20,Yes,,Female,english,Chrome,Windows,900,1600,7.406416666666667,
1080,default,block1,isabella,projective,1,14168,be_annoyed,13,be_annoyed,C,[],20,Yes,,Female,english,Chrome,Windows,900,1600,7.406416666666667,
1080,default,block1,tony,projective,1,7530,see,14,see,C,[],20,Yes,,Female,english,Chrome,Windows,900,1600,7.406416666666667,
1080,default,block1,emma,projective,0.98,7746,demonstrate,15,demonstrate,C,[],20,Yes,,Female,english,Chrome,Windows,900,1600,7.406416666666667,
1080,default,block1,muffins,projective,1,9201,MC,16,MC,MC,[],20,Yes,,Female,english,Chrome,Windows,900,1600,7.406416666666667,
1080,default,block1,grace,projective,0.23,8616,be_right,17,be_right,C,[],20,Yes,,Female,english,Chrome,Windows,900,1600,7.406416666666667,
1080,default,block1,zoe,projective,0.3,10398,acknowledge,18,acknowledge,C,[],20,Yes,,Female,english,Chrome,Windows,900,1600,7.406416666666667,
1080,default,block1,ballet,projective,1,6858,MC,19,MC,MC,[],20,Yes,,Female,english,Chrome,Windows,900,1600,7.406416666666667,
1080,default,block1,jayden,projective,0.75,10506,hear,20,hear,C,[],20,Yes,,Female,english,Chrome,Windows,900,1600,7.406416666666667,
1080,default,block1,olivia,projective,0.49,5597,establish,21,establish,C,[],20,Yes,,Female,english,Chrome,Windows,900,1600,7.406416666666667,
1080,default,block1,hat,projective,1,6285,MC,22,MC,MC,[],20,Yes,,Female,english,Chrome,Windows,900,1600,7.406416666666667,
1080,default,block1,emily,projective,0.63,3206,discover,23,discover,C,[],20,Yes,,Female,english,Chrome,Windows,900,1600,7.406416666666667,
1080,default,block1,mia,projective,0.38,5134,reveal,24,reveal,C,[],20,Yes,,Female,english,Chrome,Windows,900,1600,7.406416666666667,
1080,default,block1,josie,projective,0.68,3512,say,25,say,C,[],20,Yes,,Female,english,Chrome,Windows,900,1600,7.406416666666667,
1080,default,block1,jackson,projective,0.2,5098,announce,26,announce,C,[],20,Yes,,Female,english,Chrome,Windows,900,1600,7.406416666666667,
1080,default,block1,owen,projective,0.45,5691,suggest,27,suggest,C,[],20,Yes,,Female,english,Chrome,Windows,900,1600,7.406416666666667,
1080,default,block1,charley,projective,0.16,7680,admit,28,admit,C,[],20,Yes,,Female,english,Chrome,Windows,900,1600,7.406416666666667,
1080,default,block1,danny,projective,0.74,8725,inform,29,inform,C,[],20,Yes,,Female,english,Chrome,Windows,900,1600,7.406416666666667,
1080,default,block1,jon,projective,0.6,4617,prove,30,prove,C,[],20,Yes,,Female,english,Chrome,Windows,900,1600,7.406416666666667,
1080,default,block2,ballet,ai,0.97,11958,MC,32,MC,MC,[],20,Yes,,Female,english,Chrome,Windows,900,1600,7.406416666666667,
1080,default,block2,jackson,ai,1,6828,announce,33,announce,C,[],20,Yes,,Female,english,Chrome,Windows,900,1600,7.406416666666667,
1080,default,block2,muffins,ai,0.99,4458,MC,34,MC,MC,[],20,Yes,,Female,english,Chrome,Windows,900,1600,7.406416666666667,
1080,default,block2,josie,ai,0.93,5992,say,35,say,C,[],20,Yes,,Female,english,Chrome,Windows,900,1600,7.406416666666667,
1080,default,block2,emily,ai,0.96,18045,discover,36,discover,C,[],20,Yes,,Female,english,Chrome,Windows,900,1600,7.406416666666667,
1080,default,block2,julian,ai,0.97,3687,know,37,know,C,[],20,Yes,,Female,english,Chrome,Windows,900,1600,7.406416666666667,
1080,default,block2,isabella,ai,0.99,3340,be_annoyed,38,be_annoyed,C,[],20,Yes,,Female,english,Chrome,Windows,900,1600,7.406416666666667,
1080,default,block2,frank,ai,0.98,3320,think,39,think,C,[],20,Yes,,Female,english,Chrome,Windows,900,1600,7.406416666666667,
1080,default,block2,charley,ai,0.96,3564,admit,40,admit,C,[],20,Yes,,Female,english,Chrome,Windows,900,1600,7.406416666666667,
1080,default,block2,tony,ai,0.97,3192,see,41,see,C,[],20,Yes,,Female,english,Chrome,Windows,900,1600,7.406416666666667,
1080,default,block2,sophia,ai,0.94,6042,pretend,42,pretend,C,[],20,Yes,,Female,english,Chrome,Windows,900,1600,7.406416666666667,
1080,default,block2,kids,ai,0.98,6405,MC,43,MC,MC,[],20,Yes,,Female,english,Chrome,Windows,900,1600,7.406416666666667,
1080,default,block2,danny,ai,0.92,2105,inform,44,inform,C,[],20,Yes,,Female,english,Chrome,Windows,900,1600,7.406416666666667,
1080,default,block2,zoe,ai,0.98,2665,acknowledge,45,acknowledge,C,[],20,Yes,,Female,english,Chrome,Windows,900,1600,7.406416666666667,
1080,default,block2,hat,ai,0.99,2353,MC,46,MC,MC,[],20,Yes,,Female,english,Chrome,Windows,900,1600,7.406416666666667,
1080,default,block2,olivia,ai,0.98,1726,establish,47,establish,C,[],20,Yes,,Female,english,Chrome,Windows,900,1600,7.406416666666667,
1080,default,block2,mary,ai,0.97,1618,confirm,48,confirm,C,[],20,Yes,,Female,english,Chrome,Windows,900,1600,7.406416666666667,
1080,default,block2,grace,ai,0.97,1924,be_right,49,be_right,C,[],20,Yes,,Female,english,Chrome,Windows,900,1600,7.406416666666667,
1080,default,block2,jayden,ai,0.96,1832,hear,50,hear,C,[],20,Yes,,Female,english,Chrome,Windows,900,1600,7.406416666666667,
1080,default,block2,josh,ai,0.98,1452,confess,51,confess,C,[],20,Yes,,Female,english,Chrome,Windows,900,1600,7.406416666666667,
1080,default,block2,garage,ai,0.94,1940,MC,52,MC,MC,[],20,Yes,,Female,english,Chrome,Windows,900,1600,7.406416666666667,
1080,default,block2,pizza,ai,0.95,1900,MC,53,MC,MC,[],20,Yes,,Female,english,Chrome,Windows,900,1600,7.406416666666667,
1080,default,block2,mia,ai,0.99,1868,reveal,54,reveal,C,[],20,Yes,,Female,english,Chrome,Windows,900,1600,7.406416666666667,
1080,default,block2,emma,ai,1,2374,demonstrate,55,demonstrate,C,[],20,Yes,,Female,english,Chrome,Windows,900,1600,7.406416666666667,
1080,default,block2,owen,ai,1,3472,suggest,56,suggest,C,[],20,Yes,,Female,english,Chrome,Windows,900,1600,7.406416666666667,
1080,default,block2,jon,ai,1,5250,prove,57,prove,C,[],20,Yes,,Female,english,Chrome,Windows,900,1600,7.406416666666667,
1082,default,block1,jayden,ai,0.09,18966,pretend,5,pretend,C,[],21,Yes,,Female,English,Chrome,Mac,900,1440,9.664,
1082,default,block1,owen,ai,0.91,8352,be_right,6,be_right,C,[],21,Yes,,Female,English,Chrome,Mac,900,1440,9.664,
1082,default,block1,kids,ai,0.51,11132,MC,7,MC,MC,[],21,Yes,,Female,English,Chrome,Mac,900,1440,9.664,
1082,default,block1,mary,ai,0.38,12914,announce,8,announce,C,[],21,Yes,,Female,English,Chrome,Mac,900,1440,9.664,
1082,default,block1,pizza,ai,0.04,10973,MC,9,MC,MC,[],21,Yes,,Female,English,Chrome,Mac,900,1440,9.664,
1082,default,block1,zoe,ai,0.66,12721,suggest,10,suggest,C,[],21,Yes,,Female,English,Chrome,Mac,900,1440,9.664,
1082,default,block1,jon,ai,0.82,9524,establish,11,establish,C,[],21,Yes,,Female,English,Chrome,Mac,900,1440,9.664,
1082,default,block1,josie,ai,0.07,6978,know,12,know,C,[],21,Yes,,Female,English,Chrome,Mac,900,1440,9.664,
1082,default,block1,charley,ai,0.85,8933,hear,13,hear,C,[],21,Yes,,Female,English,Chrome,Mac,900,1440,9.664,
1082,default,block1,hat,ai,0.01,8342,MC,14,MC,MC,[],21,Yes,,Female,English,Chrome,Mac,900,1440,9.664,
1082,default,block1,tony,ai,0.83,8247,say,15,say,C,[],21,Yes,,Female,English,Chrome,Mac,900,1440,9.664,
1082,default,block1,ballet,ai,0,7731,MC,16,MC,MC,[],21,Yes,,Female,English,Chrome,Mac,900,1440,9.664,
1082,default,block1,sophia,ai,0.75,14470,confirm,17,confirm,C,[],21,Yes,,Female,English,Chrome,Mac,900,1440,9.664,
1082,default,block1,mia,ai,0.32,27332,inform,18,inform,C,[],21,Yes,,Female,English,Chrome,Mac,900,1440,9.664,
1082,default,block1,julian,ai,0.11,5847,acknowledge,19,acknowledge,C,[],21,Yes,,Female,English,Chrome,Mac,900,1440,9.664,
1082,default,block1,josh,ai,0.01,11412,reveal,20,reveal,C,[],21,Yes,,Female,English,Chrome,Mac,900,1440,9.664,
1082,default,block1,grace,ai,0.01,8239,demonstrate,21,demonstrate,C,[],21,Yes,,Female,English,Chrome,Mac,900,1440,9.664,
1082,default,block1,isabella,ai,0.86,11367,think,22,think,C,[],21,Yes,,Female,English,Chrome,Mac,900,1440,9.664,
1082,default,block1,emma,ai,0.33,10130,prove,23,prove,C,[],21,Yes,,Female,English,Chrome,Mac,900,1440,9.664,
1082,default,block1,jackson,ai,0.18,11138,confess,24,confess,C,[],21,Yes,,Female,English,Chrome,Mac,900,1440,9.664,
1082,default,block1,muffins,ai,0.02,8420,MC,25,MC,MC,[],21,Yes,,Female,English,Chrome,Mac,900,1440,9.664,
1082,default,block1,olivia,ai,0.08,11805,see,26,see,C,[],21,Yes,,Female,English,Chrome,Mac,900,1440,9.664,
1082,default,block1,emily,ai,0.01,4730,be_annoyed,27,be_annoyed,C,[],21,Yes,,Female,English,Chrome,Mac,900,1440,9.664,
1082,default,block1,garage,ai,0,4894,MC,28,MC,MC,[],21,Yes,,Female,English,Chrome,Mac,900,1440,9.664,
1082,default,block1,frank,ai,0.02,9155,discover,29,discover,C,[],21,Yes,,Female,English,Chrome,Mac,900,1440,9.664,
1082,default,block1,danny,ai,0.26,10658,admit,30,admit,C,[],21,Yes,,Female,English,Chrome,Mac,900,1440,9.664,
1082,default,block2,emma,projective,0.29,12541,prove,32,prove,C,[],21,Yes,,Female,English,Chrome,Mac,900,1440,9.664,
1082,default,block2,emily,projective,1,11263,be_annoyed,33,be_annoyed,C,[],21,Yes,,Female,English,Chrome,Mac,900,1440,9.664,
1082,default,block2,frank,projective,1,5237,discover,34,discover,C,[],21,Yes,,Female,English,Chrome,Mac,900,1440,9.664,
1082,default,block2,josie,projective,1,6351,know,35,know,C,[],21,Yes,,Female,English,Chrome,Mac,900,1440,9.664,
1082,default,block2,mary,projective,0.6,6304,announce,36,announce,C,[],21,Yes,,Female,English,Chrome,Mac,900,1440,9.664,
1082,default,block2,muffins,projective,1,6446,MC,37,MC,MC,[],21,Yes,,Female,English,Chrome,Mac,900,1440,9.664,
1082,default,block2,isabella,projective,0.2,9923,think,38,think,C,[],21,Yes,,Female,English,Chrome,Mac,900,1440,9.664,
1082,default,block2,julian,projective,1,5198,acknowledge,39,acknowledge,C,[],21,Yes,,Female,English,Chrome,Mac,900,1440,9.664,
1082,default,block2,jayden,projective,0.05,9141,pretend,40,pretend,C,[],21,Yes,,Female,English,Chrome,Mac,900,1440,9.664,
1082,default,block2,jackson,projective,0.89,8735,confess,41,confess,C,[],21,Yes,,Female,English,Chrome,Mac,900,1440,9.664,
1082,default,block2,garage,projective,1,4829,MC,42,MC,MC,[],21,Yes,,Female,English,Chrome,Mac,900,1440,9.664,
1082,default,block2,mia,projective,1,10058,inform,43,inform,C,[],21,Yes,,Female,English,Chrome,Mac,900,1440,9.664,
1082,default,block2,owen,projective,0.35,11593,be_right,44,be_right,C,[],21,Yes,,Female,English,Chrome,Mac,900,1440,9.664,
1082,default,block2,danny,projective,1,7739,admit,45,admit,C,[],21,Yes,,Female,English,Chrome,Mac,900,1440,9.664,
1082,default,block2,jon,projective,0.87,9197,establish,46,establish,C,[],21,Yes,,Female,English,Chrome,Mac,900,1440,9.664,
1082,default,block2,kids,projective,1,8319,MC,47,MC,MC,[],21,Yes,,Female,English,Chrome,Mac,900,1440,9.664,
1082,default,block2,josh,projective,0.9,12937,reveal,48,reveal,C,[],21,Yes,,Female,English,Chrome,Mac,900,1440,9.664,
1082,default,block2,pizza,projective,1,5084,MC,49,MC,MC,[],21,Yes,,Female,English,Chrome,Mac,900,1440,9.664,
1082,default,block2,ballet,projective,1,5454,MC,50,MC,MC,[],21,Yes,,Female,English,Chrome,Mac,900,1440,9.664,
1082,default,block2,charley,projective,1,9313,hear,51,hear,C,[],21,Yes,,Female,English,Chrome,Mac,900,1440,9.664,
1082,default,block2,olivia,projective,1,7540,see,52,see,C,[],21,Yes,,Female,English,Chrome,Mac,900,1440,9.664,
1082,default,block2,hat,projective,1,5777,MC,53,MC,MC,[],21,Yes,,Female,English,Chrome,Mac,900,1440,9.664,
1082,default,block2,tony,projective,0.28,7812,say,54,say,C,[],21,Yes,,Female,English,Chrome,Mac,900,1440,9.664,
1082,default,block2,zoe,projective,0.26,18732,suggest,55,suggest,C,[],21,Yes,,Female,English,Chrome,Mac,900,1440,9.664,
1082,default,block2,grace,projective,0.75,6880,demonstrate,56,demonstrate,C,[],21,Yes,,Female,English,Chrome,Mac,900,1440,9.664,
1082,default,block2,sophia,projective,0.72,7877,confirm,57,confirm,C,[],21,Yes,,Female,English,Chrome,Mac,900,1440,9.664,
1084,default,block1,hat,projective,1,12068,MC,5,MC,MC,[],27,Yes,,Female,English,Safari,Mac,900,1440,5.51465,
1084,default,block1,owen,projective,0,7459,prove,6,prove,C,[],27,Yes,,Female,English,Safari,Mac,900,1440,5.51465,
1084,default,block1,mia,projective,0.01,11714,acknowledge,7,acknowledge,C,[],27,Yes,,Female,English,Safari,Mac,900,1440,5.51465,
1084,default,block1,sophia,projective,0.01,9571,be_annoyed,8,be_annoyed,C,[],27,Yes,,Female,English,Safari,Mac,900,1440,5.51465,
1084,default,block1,tony,projective,0,7727,announce,9,announce,C,[],27,Yes,,Female,English,Safari,Mac,900,1440,5.51465,
1084,default,block1,emma,projective,0,7484,demonstrate,10,demonstrate,C,[],27,Yes,,Female,English,Safari,Mac,900,1440,5.51465,
1084,default,block1,zoe,projective,0,6196,see,11,see,C,[],27,Yes,,Female,English,Safari,Mac,900,1440,5.51465,
1084,default,block1,josie,projective,0,6464,say,12,say,C,[],27,Yes,,Female,English,Safari,Mac,900,1440,5.51465,
1084,default,block1,garage,projective,1,6241,MC,13,MC,MC,[],27,Yes,,Female,English,Safari,Mac,900,1440,5.51465,
1084,default,block1,pizza,projective,0.96,6176,MC,14,MC,MC,[],27,Yes,,Female,English,Safari,Mac,900,1440,5.51465,
1084,default,block1,ballet,projective,0.97,3717,MC,15,MC,MC,[],27,Yes,,Female,English,Safari,Mac,900,1440,5.51465,
1084,default,block1,josh,projective,0.03,5571,reveal,16,reveal,C,[],27,Yes,,Female,English,Safari,Mac,900,1440,5.51465,
1084,default,block1,julian,projective,0.03,3706,pretend,17,pretend,C,[],27,Yes,,Female,English,Safari,Mac,900,1440,5.51465,
1084,default,block1,isabella,projective,0.02,6791,know,18,know,C,[],27,Yes,,Female,English,Safari,Mac,900,1440,5.51465,
1084,default,block1,charley,projective,0.01,4023,suggest,19,suggest,C,[],27,Yes,,Female,English,Safari,Mac,900,1440,5.51465,
1084,default,block1,emily,projective,0.02,4527,hear,20,hear,C,[],27,Yes,,Female,English,Safari,Mac,900,1440,5.51465,
1084,default,block1,muffins,projective,0.99,5589,MC,21,MC,MC,[],27,Yes,,Female,English,Safari,Mac,900,1440,5.51465,
1084,default,block1,kids,projective,0.98,4813,MC,22,MC,MC,[],27,Yes,,Female,English,Safari,Mac,900,1440,5.51465,
1084,default,block1,danny,projective,0.01,4553,confess,23,confess,C,[],27,Yes,,Female,English,Safari,Mac,900,1440,5.51465,
1084,default,block1,grace,projective,0,3040,confirm,24,confirm,C,[],27,Yes,,Female,English,Safari,Mac,900,1440,5.51465,
1084,default,block1,jayden,projective,0.03,6276,admit,25,admit,C,[],27,Yes,,Female,English,Safari,Mac,900,1440,5.51465,
1084,default,block1,jon,projective,0.03,5936,establish,26,establish,C,[],27,Yes,,Female,English,Safari,Mac,900,1440,5.51465,
1084,default,block1,olivia,projective,0.04,4226,be_right,27,be_right,C,[],27,Yes,,Female,English,Safari,Mac,900,1440,5.51465,
1084,default,block1,frank,projective,0.02,4049,think,28,think,C,[],27,Yes,,Female,English,Safari,Mac,900,1440,5.51465,
1084,default,block1,mary,projective,0.02,2558,inform,29,inform,C,[],27,Yes,,Female,English,Safari,Mac,900,1440,5.51465,
1084,default,block1,jackson,projective,0.01,2258,discover,30,discover,C,[],27,Yes,,Female,English,Safari,Mac,900,1440,5.51465,
1084,default,block2,mary,ai,0.14,21628,inform,32,inform,C,[],27,Yes,,Female,English,Safari,Mac,900,1440,5.51465,
1084,default,block2,emily,ai,0.07,10344,hear,33,hear,C,[],27,Yes,,Female,English,Safari,Mac,900,1440,5.51465,
1084,default,block2,isabella,ai,0.11,4000,know,34,know,C,[],27,Yes,,Female,English,Safari,Mac,900,1440,5.51465,
1084,default,block2,owen,ai,0.06,4537,prove,35,prove,C,[],27,Yes,,Female,English,Safari,Mac,900,1440,5.51465,
1084,default,block2,jon,ai,0.07,5088,establish,36,establish,C,[],27,Yes,,Female,English,Safari,Mac,900,1440,5.51465,
1084,default,block2,emma,ai,0.07,2935,demonstrate,37,demonstrate,C,[],27,Yes,,Female,English,Safari,Mac,900,1440,5.51465,
1084,default,block2,josie,ai,0.09,2302,say,38,say,C,[],27,Yes,,Female,English,Safari,Mac,900,1440,5.51465,
1084,default,block2,julian,ai,0.07,2090,pretend,39,pretend,C,[],27,Yes,,Female,English,Safari,Mac,900,1440,5.51465,
1084,default,block2,hat,ai,0.99,4976,MC,40,MC,MC,[],27,Yes,,Female,English,Safari,Mac,900,1440,5.51465,
1084,default,block2,muffins,ai,0.98,3649,MC,41,MC,MC,[],27,Yes,,Female,English,Safari,Mac,900,1440,5.51465,
1084,default,block2,charley,ai,0,4328,suggest,42,suggest,C,[],27,Yes,,Female,English,Safari,Mac,900,1440,5.51465,
1084,default,block2,jayden,ai,0.03,4456,admit,43,admit,C,[],27,Yes,,Female,English,Safari,Mac,900,1440,5.51465,
1084,default,block2,danny,ai,0,2321,confess,44,confess,C,[],27,Yes,,Female,English,Safari,Mac,900,1440,5.51465,
1084,default,block2,grace,ai,0.01,4554,confirm,45,confirm,C,[],27,Yes,,Female,English,Safari,Mac,900,1440,5.51465,
1084,default,block2,pizza,ai,0.95,3866,MC,46,MC,MC,[],27,Yes,,Female,English,Safari,Mac,900,1440,5.51465,
1084,default,block2,ballet,ai,0.95,3190,MC,47,MC,MC,[],27,Yes,,Female,English,Safari,Mac,900,1440,5.51465,
1084,default,block2,frank,ai,0.05,3199,think,48,think,C,[],27,Yes,,Female,English,Safari,Mac,900,1440,5.51465,
1084,default,block2,kids,ai,0.98,4960,MC,49,MC,MC,[],27,Yes,,Female,English,Safari,Mac,900,1440,5.51465,
1084,default,block2,mia,ai,0.03,3441,acknowledge,50,acknowledge,C,[],27,Yes,,Female,English,Safari,Mac,900,1440,5.51465,
1084,default,block2,sophia,ai,0.04,4724,be_annoyed,51,be_annoyed,C,[],27,Yes,,Female,English,Safari,Mac,900,1440,5.51465,
1084,default,block2,josh,ai,0.05,4370,reveal,52,reveal,C,[],27,Yes,,Female,English,Safari,Mac,900,1440,5.51465,
1084,default,block2,zoe,ai,0.02,2930,see,53,see,C,[],27,Yes,,Female,English,Safari,Mac,900,1440,5.51465,
1084,default,block2,tony,ai,0.05,3392,announce,54,announce,C,[],27,Yes,,Female,English,Safari,Mac,900,1440,5.51465,
1084,default,block2,garage,ai,0.97,3431,MC,55,MC,MC,[],27,Yes,,Female,English,Safari,Mac,900,1440,5.51465,
1084,default,block2,jackson,ai,0.03,2327,discover,56,discover,C,[],27,Yes,,Female,English,Safari,Mac,900,1440,5.51465,
1084,default,block2,olivia,ai,0.04,3735,be_right,57,be_right,C,[],27,Yes,,Female,English,Safari,Mac,900,1440,5.51465,
