workerid,proliferate.condition.x,block,content,question_type,response,rt,short_trigger,slide_number_in_experiment,trigger,trigger_class,error.x,proliferate.condition.y,age,american,comments,gender,language,error.y,trial
2411,default,block1,mia,ai,0.98,9912,inform,5,inform,C,NA,default,29,Yes,NA,Male,english,NA,1
2411,default,block1,emily,ai,0.99,6732,hear,6,hear,C,NA,default,29,Yes,NA,Male,english,NA,2
2411,default,block1,ballet,ai,0.98,7143,MC,7,MC,MC,NA,default,29,Yes,NA,Male,english,NA,3
2411,default,block1,tony,ai,0.98,5445,pretend,8,pretend,C,NA,default,29,Yes,NA,Male,english,NA,4
2411,default,block1,sophia,ai,0.99,5202,know,9,know,C,NA,default,29,Yes,NA,Male,english,NA,5
2411,default,block1,isabella,ai,0.97,7247,suggest,10,suggest,C,NA,default,29,Yes,NA,Male,english,NA,6
2411,default,block1,frank,ai,0.99,4474,be_annoyed,11,be_annoyed,C,NA,default,29,Yes,NA,Male,english,NA,7
2411,default,block1,grace,ai,0.98,5291,reveal,12,reveal,C,NA,default,29,Yes,NA,Male,english,NA,8
2411,default,block1,emma,ai,0.99,7766,announce,13,announce,C,NA,default,29,Yes,NA,Male,english,NA,9
2411,default,block1,garage,ai,0.51,14538,MC,14,MC,MC,NA,default,29,Yes,NA,Male,english,NA,10
2411,default,block1,zoe,ai,0.97,4142,confirm,15,confirm,C,NA,default,29,Yes,NA,Male,english,NA,11
2411,default,block1,muffins,ai,0.53,5328,MC,16,MC,MC,NA,default,29,Yes,NA,Male,english,NA,12
2411,default,block1,jayden,ai,0.97,5050,be_right,17,be_right,C,NA,default,29,Yes,NA,Male,english,NA,13
2411,default,block1,jackson,ai,0.97,5270,acknowledge,18,acknowledge,C,NA,default,29,Yes,NA,Male,english,NA,14
2411,default,block1,mary,ai,0.98,5219,establish,19,establish,C,NA,default,29,Yes,NA,Male,english,NA,15
2411,default,block1,olivia,ai,0.96,5251,discover,20,discover,C,NA,default,29,Yes,NA,Male,english,NA,16
2411,default,block1,josh,ai,0.98,7213,think,21,think,C,NA,default,29,Yes,NA,Male,english,NA,17
2411,default,block1,danny,ai,1,6977,say,22,say,C,NA,default,29,Yes,NA,Male,english,NA,18
2411,default,block1,josie,ai,0.98,5535,see,23,see,C,NA,default,29,Yes,NA,Male,english,NA,19
2411,default,block1,kids,ai,0.5,5313,MC,24,MC,MC,NA,default,29,Yes,NA,Male,english,NA,20
2411,default,block1,pizza,ai,0.47,6588,MC,25,MC,MC,NA,default,29,Yes,NA,Male,english,NA,21
2411,default,block1,julian,ai,0.99,4862,admit,26,admit,C,NA,default,29,Yes,NA,Male,english,NA,22
2411,default,block1,charley,ai,0.99,4708,demonstrate,27,demonstrate,C,NA,default,29,Yes,NA,Male,english,NA,23
2411,default,block1,hat,ai,0.48,4035,MC,28,MC,MC,NA,default,29,Yes,NA,Male,english,NA,24
2411,default,block1,owen,ai,0.98,6711,prove,29,prove,C,NA,default,29,Yes,NA,Male,english,NA,25
2411,default,block1,jon,ai,0.97,3639,confess,30,confess,C,NA,default,29,Yes,NA,Male,english,NA,26
2411,default,block2,garage,projective,0.23,8854,MC,32,MC,MC,NA,default,29,Yes,NA,Male,english,NA,27
2411,default,block2,tony,projective,0.34,6492,pretend,33,pretend,C,NA,default,29,Yes,NA,Male,english,NA,28
2411,default,block2,jon,projective,0.35,5922,confess,34,confess,C,NA,default,29,Yes,NA,Male,english,NA,29
2411,default,block2,emily,projective,0.72,7352,hear,35,hear,C,NA,default,29,Yes,NA,Male,english,NA,30
2411,default,block2,mary,projective,0.48,3109,establish,36,establish,C,NA,default,29,Yes,NA,Male,english,NA,31
2411,default,block2,mia,projective,0.91,11541,inform,37,inform,C,NA,default,29,Yes,NA,Male,english,NA,32
2411,default,block2,grace,projective,0.85,7107,reveal,38,reveal,C,NA,default,29,Yes,NA,Male,english,NA,33
2411,default,block2,zoe,projective,0.49,5355,confirm,39,confirm,C,NA,default,29,Yes,NA,Male,english,NA,34
2411,default,block2,julian,projective,0.29,11310,admit,40,admit,C,NA,default,29,Yes,NA,Male,english,NA,35
2411,default,block2,josie,projective,0.93,8573,see,41,see,C,NA,default,29,Yes,NA,Male,english,NA,36
2411,default,block2,muffins,projective,0.28,6345,MC,42,MC,MC,NA,default,29,Yes,NA,Male,english,NA,37
2411,default,block2,owen,projective,0.5,4021,prove,43,prove,C,NA,default,29,Yes,NA,Male,english,NA,38
2411,default,block2,hat,projective,0.22,6158,MC,44,MC,MC,NA,default,29,Yes,NA,Male,english,NA,39
2411,default,block2,sophia,projective,0.96,4948,know,45,know,C,NA,default,29,Yes,NA,Male,english,NA,40
2411,default,block2,isabella,projective,0.38,8259,suggest,46,suggest,C,NA,default,29,Yes,NA,Male,english,NA,41
2411,default,block2,emma,projective,0.29,6421,announce,47,announce,C,NA,default,29,Yes,NA,Male,english,NA,42
2411,default,block2,jayden,projective,0.22,4550,be_right,48,be_right,C,NA,default,29,Yes,NA,Male,english,NA,43
2411,default,block2,olivia,projective,0.56,5163,discover,49,discover,C,NA,default,29,Yes,NA,Male,english,NA,44
2411,default,block2,charley,projective,0.5,4021,demonstrate,50,demonstrate,C,NA,default,29,Yes,NA,Male,english,NA,45
2411,default,block2,frank,projective,0.96,6279,be_annoyed,51,be_annoyed,C,NA,default,29,Yes,NA,Male,english,NA,46
2411,default,block2,ballet,projective,0.33,4185,MC,52,MC,MC,NA,default,29,Yes,NA,Male,english,NA,47
2411,default,block2,josh,projective,0.41,4273,think,53,think,C,NA,default,29,Yes,NA,Male,english,NA,48
2411,default,block2,danny,projective,0.3,5325,say,54,say,C,NA,default,29,Yes,NA,Male,english,NA,49
2411,default,block2,kids,projective,0.29,5374,MC,55,MC,MC,NA,default,29,Yes,NA,Male,english,NA,50
2411,default,block2,jackson,projective,0.97,6167,acknowledge,56,acknowledge,C,NA,default,29,Yes,NA,Male,english,NA,51
2411,default,block2,pizza,projective,0.33,7893,MC,57,MC,MC,NA,default,29,Yes,NA,Male,english,NA,52
2444,default,block1,owen,ai,1,8271,suggest,5,suggest,C,NA,default,21,Yes,No comment.,Male,English,NA,1
2444,default,block1,jon,ai,1,5904,demonstrate,6,demonstrate,C,NA,default,21,Yes,No comment.,Male,English,NA,2
2444,default,block1,emma,ai,1,16400,see,7,see,C,NA,default,21,Yes,No comment.,Male,English,NA,3
2444,default,block1,pizza,ai,0.18000000000000005,11351,MC,8,MC,MC,NA,default,21,Yes,No comment.,Male,English,NA,4
2444,default,block1,jayden,ai,1,5560,think,9,think,C,NA,default,21,Yes,No comment.,Male,English,NA,5
2444,default,block1,kids,ai,0,8304,MC,10,MC,MC,NA,default,21,Yes,No comment.,Male,English,NA,6
2444,default,block1,mary,ai,1,5239,confess,11,confess,C,NA,default,21,Yes,No comment.,Male,English,NA,7
2444,default,block1,ballet,ai,0,5824,MC,12,MC,MC,NA,default,21,Yes,No comment.,Male,English,NA,8
2444,default,block1,isabella,ai,1,7032,say,13,say,C,NA,default,21,Yes,No comment.,Male,English,NA,9
2444,default,block1,garage,ai,0,8064,MC,14,MC,MC,NA,default,21,Yes,No comment.,Male,English,NA,10
2444,default,block1,olivia,ai,1,5167,confirm,15,confirm,C,NA,default,21,Yes,No comment.,Male,English,NA,11
2444,default,block1,sophia,ai,1,12807,inform,16,inform,C,NA,default,21,Yes,No comment.,Male,English,NA,12
2444,default,block1,josh,ai,1,9712,hear,17,hear,C,NA,default,21,Yes,No comment.,Male,English,NA,13
2444,default,block1,zoe,ai,1,3926,establish,18,establish,C,NA,default,21,Yes,No comment.,Male,English,NA,14
2444,default,block1,charley,ai,1,6368,announce,19,announce,C,NA,default,21,Yes,No comment.,Male,English,NA,15
2444,default,block1,grace,ai,1,3144,prove,20,prove,C,NA,default,21,Yes,No comment.,Male,English,NA,16
2444,default,block1,tony,ai,1,5016,be_annoyed,21,be_annoyed,C,NA,default,21,Yes,No comment.,Male,English,NA,17
2444,default,block1,julian,ai,1,4184,acknowledge,22,acknowledge,C,NA,default,21,Yes,No comment.,Male,English,NA,18
2444,default,block1,danny,ai,1,3424,admit,23,admit,C,NA,default,21,Yes,No comment.,Male,English,NA,19
2444,default,block1,emily,ai,0.99,5096,be_right,24,be_right,C,NA,default,21,Yes,No comment.,Male,English,NA,20
2444,default,block1,muffins,ai,0,8903,MC,25,MC,MC,NA,default,21,Yes,No comment.,Male,English,NA,21
2444,default,block1,josie,ai,1,4616,know,26,know,C,NA,default,21,Yes,No comment.,Male,English,NA,22
2444,default,block1,frank,ai,1,3440,discover,27,discover,C,NA,default,21,Yes,No comment.,Male,English,NA,23
2444,default,block1,hat,ai,0,5432,MC,28,MC,MC,NA,default,21,Yes,No comment.,Male,English,NA,24
2444,default,block1,jackson,ai,1,6511,pretend,29,pretend,C,NA,default,21,Yes,No comment.,Male,English,NA,25
2444,default,block1,mia,ai,1,8263,reveal,30,reveal,C,NA,default,21,Yes,No comment.,Male,English,NA,26
2444,default,block2,josie,projective,0,6302,know,32,know,C,NA,default,21,Yes,No comment.,Male,English,NA,27
2444,default,block2,charley,projective,1,7816,announce,33,announce,C,NA,default,21,Yes,No comment.,Male,English,NA,28
2444,default,block2,muffins,projective,0,6768,MC,34,MC,MC,NA,default,21,Yes,No comment.,Male,English,NA,29
2444,default,block2,jayden,projective,1,6919,think,35,think,C,NA,default,21,Yes,No comment.,Male,English,NA,30
2444,default,block2,sophia,projective,1,5799,inform,36,inform,C,NA,default,21,Yes,No comment.,Male,English,NA,31
2444,default,block2,josh,projective,1,4608,hear,37,hear,C,NA,default,21,Yes,No comment.,Male,English,NA,32
2444,default,block2,mary,projective,1,5560,confess,38,confess,C,NA,default,21,Yes,No comment.,Male,English,NA,33
2444,default,block2,julian,projective,1,4991,acknowledge,39,acknowledge,C,NA,default,21,Yes,No comment.,Male,English,NA,34
2444,default,block2,jackson,projective,0,4600,pretend,40,pretend,C,NA,default,21,Yes,No comment.,Male,English,NA,35
2444,default,block2,owen,projective,0,10599,suggest,41,suggest,C,NA,default,21,Yes,No comment.,Male,English,NA,36
2444,default,block2,olivia,projective,0.68,5872,confirm,42,confirm,C,NA,default,21,Yes,No comment.,Male,English,NA,37
2444,default,block2,ballet,projective,0,4280,MC,43,MC,MC,NA,default,21,Yes,No comment.,Male,English,NA,38
2444,default,block2,jon,projective,0,4551,demonstrate,44,demonstrate,C,NA,default,21,Yes,No comment.,Male,English,NA,39
2444,default,block2,isabella,projective,0,9832,say,45,say,C,NA,default,21,Yes,No comment.,Male,English,NA,40
2444,default,block2,danny,projective,1,4056,admit,46,admit,C,NA,default,21,Yes,No comment.,Male,English,NA,41
2444,default,block2,emily,projective,0,7016,be_right,47,be_right,C,NA,default,21,Yes,No comment.,Male,English,NA,42
2444,default,block2,grace,projective,0,6264,prove,48,prove,C,NA,default,21,Yes,No comment.,Male,English,NA,43
2444,default,block2,pizza,projective,0,6920,MC,49,MC,MC,NA,default,21,Yes,No comment.,Male,English,NA,44
2444,default,block2,kids,projective,0,23335,MC,50,MC,MC,NA,default,21,Yes,No comment.,Male,English,NA,45
2444,default,block2,tony,projective,1,6232,be_annoyed,51,be_annoyed,C,NA,default,21,Yes,No comment.,Male,English,NA,46
2444,default,block2,mia,projective,1,3407,reveal,52,reveal,C,NA,default,21,Yes,No comment.,Male,English,NA,47
2444,default,block2,frank,projective,1,4488,discover,53,discover,C,NA,default,21,Yes,No comment.,Male,English,NA,48
2444,default,block2,garage,projective,0,4720,MC,54,MC,MC,NA,default,21,Yes,No comment.,Male,English,NA,49
2444,default,block2,hat,projective,0,3776,MC,55,MC,MC,NA,default,21,Yes,No comment.,Male,English,NA,50
2444,default,block2,emma,projective,1,6504,see,56,see,C,NA,default,21,Yes,No comment.,Male,English,NA,51
2444,default,block2,zoe,projective,0,5176,establish,57,establish,C,NA,default,21,Yes,No comment.,Male,English,NA,52
2319,default,block1,grace,projective,0.24,9302,say,5,say,C,NA,default,21,Yes,NA,Other,English,NA,1
2319,default,block1,mary,projective,0.09,8037,prove,6,prove,C,NA,default,21,Yes,NA,Other,English,NA,2
2319,default,block1,kids,projective,0.11,12973,MC,7,MC,MC,NA,default,21,Yes,NA,Other,English,NA,3
2319,default,block1,muffins,projective,0.18,7218,MC,8,MC,MC,NA,default,21,Yes,NA,Other,English,NA,4
2319,default,block1,josh,projective,0.57,11153,confirm,9,confirm,C,NA,default,21,Yes,NA,Other,English,NA,5
2319,default,block1,jackson,projective,0.54,7183,be_right,10,be_right,C,NA,default,21,Yes,NA,Other,English,NA,6
2319,default,block1,julian,projective,0.41,8765,see,11,see,C,NA,default,21,Yes,NA,Other,English,NA,7
2319,default,block1,charley,projective,0.97,9409,acknowledge,12,acknowledge,C,NA,default,21,Yes,NA,Other,English,NA,8
2319,default,block1,jayden,projective,0.83,9324,admit,13,admit,C,NA,default,21,Yes,NA,Other,English,NA,9
2319,default,block1,zoe,projective,1,9347,hear,14,hear,C,NA,default,21,Yes,NA,Other,English,NA,10
2319,default,block1,josie,projective,1,5603,think,15,think,C,NA,default,21,Yes,NA,Other,English,NA,11
2319,default,block1,isabella,projective,0.78,7608,confess,16,confess,C,NA,default,21,Yes,NA,Other,English,NA,12
2319,default,block1,jon,projective,0.38,9841,pretend,17,pretend,C,NA,default,21,Yes,NA,Other,English,NA,13
2319,default,block1,hat,projective,0.27,7341,MC,18,MC,MC,NA,default,21,Yes,NA,Other,English,NA,14
2319,default,block1,owen,projective,0.39,5606,announce,19,announce,C,NA,default,21,Yes,NA,Other,English,NA,15
2319,default,block1,emily,projective,1,12043,be_annoyed,20,be_annoyed,C,NA,default,21,Yes,NA,Other,English,NA,16
2319,default,block1,sophia,projective,1,3320,discover,21,discover,C,NA,default,21,Yes,NA,Other,English,NA,17
2319,default,block1,frank,projective,1,4465,establish,22,establish,C,NA,default,21,Yes,NA,Other,English,NA,18
2319,default,block1,emma,projective,1,5042,inform,23,inform,C,NA,default,21,Yes,NA,Other,English,NA,19
2319,default,block1,danny,projective,0.88,4562,reveal,24,reveal,C,NA,default,21,Yes,NA,Other,English,NA,20
2319,default,block1,garage,projective,0.23,6348,MC,25,MC,MC,NA,default,21,Yes,NA,Other,English,NA,21
2319,default,block1,olivia,projective,1,6027,know,26,know,C,NA,default,21,Yes,NA,Other,English,NA,22
2319,default,block1,mia,projective,0.85,7544,demonstrate,27,demonstrate,C,NA,default,21,Yes,NA,Other,English,NA,23
2319,default,block1,ballet,projective,0.17,6671,MC,28,MC,MC,NA,default,21,Yes,NA,Other,English,NA,24
2319,default,block1,pizza,projective,0.51,10615,MC,29,MC,MC,NA,default,21,Yes,NA,Other,English,NA,25
2319,default,block1,tony,projective,0.39,4437,suggest,30,suggest,C,NA,default,21,Yes,NA,Other,English,NA,26
2319,default,block2,josh,ai,1,10404,confirm,32,confirm,C,NA,default,21,Yes,NA,Other,English,NA,27
2319,default,block2,charley,ai,0.98,4750,acknowledge,33,acknowledge,C,NA,default,21,Yes,NA,Other,English,NA,28
2319,default,block2,jackson,ai,1,5249,be_right,34,be_right,C,NA,default,21,Yes,NA,Other,English,NA,29
2319,default,block2,sophia,ai,1,5859,discover,35,discover,C,NA,default,21,Yes,NA,Other,English,NA,30
2319,default,block2,garage,ai,0,6802,MC,36,MC,MC,NA,default,21,Yes,NA,Other,English,NA,31
2319,default,block2,pizza,ai,0.36,5145,MC,37,MC,MC,NA,default,21,Yes,NA,Other,English,NA,32
2319,default,block2,grace,ai,1,5425,say,38,say,C,NA,default,21,Yes,NA,Other,English,NA,33
2319,default,block2,tony,ai,1,5428,suggest,39,suggest,C,NA,default,21,Yes,NA,Other,English,NA,34
2319,default,block2,olivia,ai,1,4980,know,40,know,C,NA,default,21,Yes,NA,Other,English,NA,35
2319,default,block2,emma,ai,1,5913,inform,41,inform,C,NA,default,21,Yes,NA,Other,English,NA,36
2319,default,block2,josie,ai,1,4613,think,42,think,C,NA,default,21,Yes,NA,Other,English,NA,37
2319,default,block2,mia,ai,1,3653,demonstrate,43,demonstrate,C,NA,default,21,Yes,NA,Other,English,NA,38
2319,default,block2,owen,ai,1,3629,announce,44,announce,C,NA,default,21,Yes,NA,Other,English,NA,39
2319,default,block2,zoe,ai,1,4847,hear,45,hear,C,NA,default,21,Yes,NA,Other,English,NA,40
2319,default,block2,emily,ai,0.98,3985,be_annoyed,46,be_annoyed,C,NA,default,21,Yes,NA,Other,English,NA,41
2319,default,block2,julian,ai,1,3999,see,47,see,C,NA,default,21,Yes,NA,Other,English,NA,42
2319,default,block2,jon,ai,1,8005,pretend,48,pretend,C,NA,default,21,Yes,NA,Other,English,NA,43
2319,default,block2,hat,ai,0.010000000000000009,5315,MC,49,MC,MC,NA,default,21,Yes,NA,Other,English,NA,44
2319,default,block2,danny,ai,1,4371,reveal,50,reveal,C,NA,default,21,Yes,NA,Other,English,NA,45
2319,default,block2,kids,ai,0,4956,MC,51,MC,MC,NA,default,21,Yes,NA,Other,English,NA,46
2319,default,block2,mary,ai,1,6273,prove,52,prove,C,NA,default,21,Yes,NA,Other,English,NA,47
2319,default,block2,frank,ai,1,7541,establish,53,establish,C,NA,default,21,Yes,NA,Other,English,NA,48
2319,default,block2,muffins,ai,0.26,4465,MC,54,MC,MC,NA,default,21,Yes,NA,Other,English,NA,49
2319,default,block2,ballet,ai,0,4799,MC,55,MC,MC,NA,default,21,Yes,NA,Other,English,NA,50
2319,default,block2,isabella,ai,1,4304,confess,56,confess,C,NA,default,21,Yes,NA,Other,English,NA,51
2319,default,block2,jayden,ai,1,4908,admit,57,admit,C,NA,default,21,Yes,NA,Other,English,NA,52
2267,default,block1,josie,projective,0.03,28245,confirm,5,confirm,C,NA,default,22,Yes,NA,Male,English,NA,1
2267,default,block1,owen,projective,0.08,13660,think,6,think,C,NA,default,22,Yes,NA,Male,English,NA,2
2267,default,block1,isabella,projective,0.98,9966,be_annoyed,7,be_annoyed,C,NA,default,22,Yes,NA,Male,English,NA,3
2267,default,block1,mia,projective,0.07,8740,establish,8,establish,C,NA,default,22,Yes,NA,Male,English,NA,4
2267,default,block1,olivia,projective,0.94,5268,announce,9,announce,C,NA,default,22,Yes,NA,Male,English,NA,5
2267,default,block1,hat,projective,0.03,5872,MC,10,MC,MC,NA,default,22,Yes,NA,Male,English,NA,6
2267,default,block1,zoe,projective,0.08,5320,pretend,11,pretend,C,NA,default,22,Yes,NA,Male,English,NA,7
2267,default,block1,sophia,projective,0.96,4870,acknowledge,12,acknowledge,C,NA,default,22,Yes,NA,Male,English,NA,8
2267,default,block1,emma,projective,0.99,4819,discover,13,discover,C,NA,default,22,Yes,NA,Male,English,NA,9
2267,default,block1,garage,projective,0.03,5939,MC,14,MC,MC,NA,default,22,Yes,NA,Male,English,NA,10
2267,default,block1,danny,projective,0.06,6923,demonstrate,15,demonstrate,C,NA,default,22,Yes,NA,Male,English,NA,11
2267,default,block1,julian,projective,0.97,8714,admit,16,admit,C,NA,default,22,Yes,NA,Male,English,NA,12
2267,default,block1,jon,projective,0.94,4059,confess,17,confess,C,NA,default,22,Yes,NA,Male,English,NA,13
2267,default,block1,tony,projective,0.09,4987,suggest,18,suggest,C,NA,default,22,Yes,NA,Male,English,NA,14
2267,default,block1,grace,projective,0.96,26037,inform,19,inform,C,NA,default,22,Yes,NA,Male,English,NA,15
2267,default,block1,ballet,projective,0.07,4297,MC,20,MC,MC,NA,default,22,Yes,NA,Male,English,NA,16
2267,default,block1,frank,projective,0.07,4549,prove,21,prove,C,NA,default,22,Yes,NA,Male,English,NA,17
2267,default,block1,jackson,projective,0.92,4043,reveal,22,reveal,C,NA,default,22,Yes,NA,Male,English,NA,18
2267,default,block1,josh,projective,0.96,3598,know,23,know,C,NA,default,22,Yes,NA,Male,English,NA,19
2267,default,block1,jayden,projective,0.4,4601,be_right,24,be_right,C,NA,default,22,Yes,NA,Male,English,NA,20
2267,default,block1,pizza,projective,0.16,16913,MC,25,MC,MC,NA,default,22,Yes,NA,Male,English,NA,21
2267,default,block1,muffins,projective,0.12,3767,MC,26,MC,MC,NA,default,22,Yes,NA,Male,English,NA,22
2267,default,block1,mary,projective,0.96,2595,see,27,see,C,NA,default,22,Yes,NA,Male,English,NA,23
2267,default,block1,emily,projective,0.14,7972,say,28,say,C,NA,default,22,Yes,NA,Male,English,NA,24
2267,default,block1,kids,projective,0.08,8072,MC,29,MC,MC,NA,default,22,Yes,NA,Male,English,NA,25
2267,default,block1,charley,projective,0.94,4284,hear,30,hear,C,NA,default,22,Yes,NA,Male,English,NA,26
2267,default,block2,muffins,ai,0.030000000000000027,8692,MC,32,MC,MC,NA,default,22,Yes,NA,Male,English,NA,27
2267,default,block2,hat,ai,0.72,8566,MC,33,MC,MC,NA,default,22,Yes,NA,Male,English,NA,28
2267,default,block2,emma,ai,0.96,3782,discover,34,discover,C,NA,default,22,Yes,NA,Male,English,NA,29
2267,default,block2,tony,ai,0.98,5182,suggest,35,suggest,C,NA,default,22,Yes,NA,Male,English,NA,30
2267,default,block2,mary,ai,0.96,4512,see,36,see,C,NA,default,22,Yes,NA,Male,English,NA,31
2267,default,block2,danny,ai,0.95,3738,demonstrate,37,demonstrate,C,NA,default,22,Yes,NA,Male,English,NA,32
2267,default,block2,sophia,ai,0.94,4763,acknowledge,38,acknowledge,C,NA,default,22,Yes,NA,Male,English,NA,33
2267,default,block2,josie,ai,0.94,3450,confirm,39,confirm,C,NA,default,22,Yes,NA,Male,English,NA,34
2267,default,block2,owen,ai,0.9299999999999999,2850,think,40,think,C,NA,default,22,Yes,NA,Male,English,NA,35
2267,default,block2,charley,ai,0.9299999999999999,4210,hear,41,hear,C,NA,default,22,Yes,NA,Male,English,NA,36
2267,default,block2,emily,ai,0.9299999999999999,66187,say,42,say,C,NA,default,22,Yes,NA,Male,English,NA,37
2267,default,block2,zoe,ai,0.92,2726,pretend,43,pretend,C,NA,default,22,Yes,NA,Male,English,NA,38
2267,default,block2,isabella,ai,0.9299999999999999,4755,be_annoyed,44,be_annoyed,C,NA,default,22,Yes,NA,Male,English,NA,39
2267,default,block2,julian,ai,0.85,2530,admit,45,admit,C,NA,default,22,Yes,NA,Male,English,NA,40
2267,default,block2,frank,ai,0.92,2439,prove,46,prove,C,NA,default,22,Yes,NA,Male,English,NA,41
2267,default,block2,olivia,ai,0.91,2165,announce,47,announce,C,NA,default,22,Yes,NA,Male,English,NA,42
2267,default,block2,pizza,ai,0.97,8514,MC,48,MC,MC,NA,default,22,Yes,NA,Male,English,NA,43
2267,default,block2,jon,ai,0.87,5485,confess,49,confess,C,NA,default,22,Yes,NA,Male,English,NA,44
2267,default,block2,jayden,ai,0.86,4411,be_right,50,be_right,C,NA,default,22,Yes,NA,Male,English,NA,45
2267,default,block2,garage,ai,0.35,24556,MC,51,MC,MC,NA,default,22,Yes,NA,Male,English,NA,46
2267,default,block2,grace,ai,0.92,3496,inform,52,inform,C,NA,default,22,Yes,NA,Male,English,NA,47
2267,default,block2,ballet,ai,0.7,6330,MC,53,MC,MC,NA,default,22,Yes,NA,Male,English,NA,48
2267,default,block2,jackson,ai,0.83,2770,reveal,54,reveal,C,NA,default,22,Yes,NA,Male,English,NA,49
2267,default,block2,kids,ai,0.78,3063,MC,55,MC,MC,NA,default,22,Yes,NA,Male,English,NA,50
2267,default,block2,mia,ai,0.86,2708,establish,56,establish,C,NA,default,22,Yes,NA,Male,English,NA,51
2267,default,block2,josh,ai,0.89,11027,know,57,know,C,NA,default,22,Yes,NA,Male,English,NA,52
2314,default,block1,josh,projective,0.75,21884,admit,5,admit,C,NA,default,65,Yes,Interesting,Female,English,NA,1
2314,default,block1,kids,projective,0.06,13372,MC,6,MC,MC,NA,default,65,Yes,Interesting,Female,English,NA,2
2314,default,block1,julian,projective,0.8,13366,discover,7,discover,C,NA,default,65,Yes,Interesting,Female,English,NA,3
2314,default,block1,hat,projective,0.58,18180,MC,8,MC,MC,NA,default,65,Yes,Interesting,Female,English,NA,4
2314,default,block1,tony,projective,0.89,9082,be_annoyed,9,be_annoyed,C,NA,default,65,Yes,Interesting,Female,English,NA,5
2314,default,block1,owen,projective,0.93,11541,inform,10,inform,C,NA,default,65,Yes,Interesting,Female,English,NA,6
2314,default,block1,emma,projective,0.39,8249,confirm,11,confirm,C,NA,default,65,Yes,Interesting,Female,English,NA,7
2314,default,block1,ballet,projective,0.41,14883,MC,12,MC,MC,NA,default,65,Yes,Interesting,Female,English,NA,8
2314,default,block1,mary,projective,0.43,10269,reveal,13,reveal,C,NA,default,65,Yes,Interesting,Female,English,NA,9
2314,default,block1,garage,projective,0.27,13144,MC,14,MC,MC,NA,default,65,Yes,Interesting,Female,English,NA,10
2314,default,block1,danny,projective,0.95,7954,hear,15,hear,C,NA,default,65,Yes,Interesting,Female,English,NA,11
2314,default,block1,jon,projective,0.09,9599,pretend,16,pretend,C,NA,default,65,Yes,Interesting,Female,English,NA,12
2314,default,block1,muffins,projective,0.41,8269,MC,17,MC,MC,NA,default,65,Yes,Interesting,Female,English,NA,13
2314,default,block1,josie,projective,0.88,8451,see,18,see,C,NA,default,65,Yes,Interesting,Female,English,NA,14
2314,default,block1,frank,projective,0.35,10433,acknowledge,19,acknowledge,C,NA,default,65,Yes,Interesting,Female,English,NA,15
2314,default,block1,emily,projective,0.19,15572,demonstrate,20,demonstrate,C,NA,default,65,Yes,Interesting,Female,English,NA,16
2314,default,block1,sophia,projective,0.15,8491,prove,21,prove,C,NA,default,65,Yes,Interesting,Female,English,NA,17
2314,default,block1,jayden,projective,0.32,8367,establish,22,establish,C,NA,default,65,Yes,Interesting,Female,English,NA,18
2314,default,block1,grace,projective,0.28,6706,suggest,23,suggest,C,NA,default,65,Yes,Interesting,Female,English,NA,19
2314,default,block1,isabella,projective,0.33,15147,announce,24,announce,C,NA,default,65,Yes,Interesting,Female,English,NA,20
2314,default,block1,mia,projective,0.41,11267,think,25,think,C,NA,default,65,Yes,Interesting,Female,English,NA,21
2314,default,block1,pizza,projective,0.5,30150,MC,26,MC,MC,NA,default,65,Yes,Interesting,Female,English,NA,22
2314,default,block1,zoe,projective,0.29,18508,say,27,say,C,NA,default,65,Yes,Interesting,Female,English,NA,23
2314,default,block1,jackson,projective,0.69,9896,be_right,28,be_right,C,NA,default,65,Yes,Interesting,Female,English,NA,24
2314,default,block1,olivia,projective,0.69,10004,confess,29,confess,C,NA,default,65,Yes,Interesting,Female,English,NA,25
2314,default,block1,charley,projective,0.85,6583,know,30,know,C,NA,default,65,Yes,Interesting,Female,English,NA,26
2314,default,block2,jayden,ai,0.86,23456,establish,32,establish,C,NA,default,65,Yes,Interesting,Female,English,NA,27
2314,default,block2,frank,ai,0.9299999999999999,7192,acknowledge,33,acknowledge,C,NA,default,65,Yes,Interesting,Female,English,NA,28
2314,default,block2,julian,ai,0.55,13459,discover,34,discover,C,NA,default,65,Yes,Interesting,Female,English,NA,29
2314,default,block2,josh,ai,0.97,8228,admit,35,admit,C,NA,default,65,Yes,Interesting,Female,English,NA,30
2314,default,block2,josie,ai,0.98,6633,see,36,see,C,NA,default,65,Yes,Interesting,Female,English,NA,31
2314,default,block2,hat,ai,0.17000000000000004,11934,MC,37,MC,MC,NA,default,65,Yes,Interesting,Female,English,NA,32
2314,default,block2,tony,ai,0.94,10148,be_annoyed,38,be_annoyed,C,NA,default,65,Yes,Interesting,Female,English,NA,33
2314,default,block2,pizza,ai,0.18999999999999995,11904,MC,39,MC,MC,NA,default,65,Yes,Interesting,Female,English,NA,34
2314,default,block2,grace,ai,0.95,11308,suggest,40,suggest,C,NA,default,65,Yes,Interesting,Female,English,NA,35
2314,default,block2,mary,ai,0.98,11031,reveal,41,reveal,C,NA,default,65,Yes,Interesting,Female,English,NA,36
2314,default,block2,jackson,ai,0.97,6784,be_right,42,be_right,C,NA,default,65,Yes,Interesting,Female,English,NA,37
2314,default,block2,zoe,ai,0.97,4742,say,43,say,C,NA,default,65,Yes,Interesting,Female,English,NA,38
2314,default,block2,olivia,ai,0.99,9377,confess,44,confess,C,NA,default,65,Yes,Interesting,Female,English,NA,39
2314,default,block2,isabella,ai,0.97,5851,announce,45,announce,C,NA,default,65,Yes,Interesting,Female,English,NA,40
2314,default,block2,sophia,ai,0.97,4834,prove,46,prove,C,NA,default,65,Yes,Interesting,Female,English,NA,41
2314,default,block2,jon,ai,0.97,8351,pretend,47,pretend,C,NA,default,65,Yes,Interesting,Female,English,NA,42
2314,default,block2,garage,ai,0.020000000000000018,12513,MC,48,MC,MC,NA,default,65,Yes,Interesting,Female,English,NA,43
2314,default,block2,emma,ai,0.97,6258,confirm,49,confirm,C,NA,default,65,Yes,Interesting,Female,English,NA,44
2314,default,block2,emily,ai,0.98,9884,demonstrate,50,demonstrate,C,NA,default,65,Yes,Interesting,Female,English,NA,45
2314,default,block2,danny,ai,1,14669,hear,51,hear,C,NA,default,65,Yes,Interesting,Female,English,NA,46
2314,default,block2,kids,ai,0.020000000000000018,9957,MC,52,MC,MC,NA,default,65,Yes,Interesting,Female,English,NA,47
2314,default,block2,owen,ai,0.98,9286,inform,53,inform,C,NA,default,65,Yes,Interesting,Female,English,NA,48
2314,default,block2,muffins,ai,0.030000000000000027,7183,MC,54,MC,MC,NA,default,65,Yes,Interesting,Female,English,NA,49
2314,default,block2,ballet,ai,0.010000000000000009,8421,MC,55,MC,MC,NA,default,65,Yes,Interesting,Female,English,NA,50
2314,default,block2,mia,ai,0.030000000000000027,59499,think,56,think,C,NA,default,65,Yes,Interesting,Female,English,NA,51
2314,default,block2,charley,ai,0.97,6268,know,57,know,C,NA,default,65,Yes,Interesting,Female,English,NA,52
2398,default,block1,jon,projective,0.07,7464,establish,5,establish,C,NA,default,27,Yes,NA,Male,English,NA,1
2398,default,block1,garage,projective,0.08,8509,MC,6,MC,MC,NA,default,27,Yes,NA,Male,English,NA,2
2398,default,block1,hat,projective,0.08,6350,MC,7,MC,MC,NA,default,27,Yes,NA,Male,English,NA,3
2398,default,block1,josh,projective,0.72,8930,reveal,8,reveal,C,NA,default,27,Yes,NA,Male,English,NA,4
2398,default,block1,isabella,projective,0.98,5479,be_annoyed,9,be_annoyed,C,NA,default,27,Yes,NA,Male,English,NA,5
2398,default,block1,mia,projective,0.26,7323,pretend,10,pretend,C,NA,default,27,Yes,NA,Male,English,NA,6
2398,default,block1,pizza,projective,0.5,19007,MC,11,MC,MC,NA,default,27,Yes,NA,Male,English,NA,7
2398,default,block1,josie,projective,0.8,7427,admit,12,admit,C,NA,default,27,Yes,NA,Male,English,NA,8
2398,default,block1,emma,projective,0.22,10540,confess,13,confess,C,NA,default,27,Yes,NA,Male,English,NA,9
2398,default,block1,zoe,projective,0.98,10951,hear,14,hear,C,NA,default,27,Yes,NA,Male,English,NA,10
2398,default,block1,muffins,projective,0.06,8265,MC,15,MC,MC,NA,default,27,Yes,NA,Male,English,NA,11
2398,default,block1,tony,projective,0.76,8890,announce,16,announce,C,NA,default,27,Yes,NA,Male,English,NA,12
2398,default,block1,mary,projective,0.96,4018,acknowledge,17,acknowledge,C,NA,default,27,Yes,NA,Male,English,NA,13
2398,default,block1,olivia,projective,0.99,8996,discover,18,discover,C,NA,default,27,Yes,NA,Male,English,NA,14
2398,default,block1,charley,projective,0.96,5641,know,19,know,C,NA,default,27,Yes,NA,Male,English,NA,15
2398,default,block1,ballet,projective,0.13,4679,MC,20,MC,MC,NA,default,27,Yes,NA,Male,English,NA,16
2398,default,block1,jackson,projective,0.17,5455,suggest,21,suggest,C,NA,default,27,Yes,NA,Male,English,NA,17
2398,default,block1,kids,projective,0.1,5730,MC,22,MC,MC,NA,default,27,Yes,NA,Male,English,NA,18
2398,default,block1,danny,projective,0.53,12592,confirm,23,confirm,C,NA,default,27,Yes,NA,Male,English,NA,19
2398,default,block1,owen,projective,0.2,5374,say,24,say,C,NA,default,27,Yes,NA,Male,English,NA,20
2398,default,block1,frank,projective,0.96,4276,see,25,see,C,NA,default,27,Yes,NA,Male,English,NA,21
2398,default,block1,emily,projective,0.11,6304,demonstrate,26,demonstrate,C,NA,default,27,Yes,NA,Male,English,NA,22
2398,default,block1,sophia,projective,0.66,3532,prove,27,prove,C,NA,default,27,Yes,NA,Male,English,NA,23
2398,default,block1,jayden,projective,0.16,8434,think,28,think,C,NA,default,27,Yes,NA,Male,English,NA,24
2398,default,block1,julian,projective,0.2,4892,be_right,29,be_right,C,NA,default,27,Yes,NA,Male,English,NA,25
2398,default,block1,grace,projective,0.96,11779,inform,30,inform,C,NA,default,27,Yes,NA,Male,English,NA,26
2398,default,block2,owen,ai,0.9299999999999999,11506,say,32,say,C,NA,default,27,Yes,NA,Male,English,NA,27
2398,default,block2,zoe,ai,0.94,4919,hear,33,hear,C,NA,default,27,Yes,NA,Male,English,NA,28
2398,default,block2,pizza,ai,0.30000000000000004,10906,MC,34,MC,MC,NA,default,27,Yes,NA,Male,English,NA,29
2398,default,block2,josh,ai,0.98,7634,reveal,35,reveal,C,NA,default,27,Yes,NA,Male,English,NA,30
2398,default,block2,charley,ai,0.95,5002,know,36,know,C,NA,default,27,Yes,NA,Male,English,NA,31
2398,default,block2,ballet,ai,0.20999999999999996,8106,MC,37,MC,MC,NA,default,27,Yes,NA,Male,English,NA,32
2398,default,block2,jackson,ai,0.96,5505,suggest,38,suggest,C,NA,default,27,Yes,NA,Male,English,NA,33
2398,default,block2,mary,ai,0.94,9296,acknowledge,39,acknowledge,C,NA,default,27,Yes,NA,Male,English,NA,34
2398,default,block2,josie,ai,0.97,3682,admit,40,admit,C,NA,default,27,Yes,NA,Male,English,NA,35
2398,default,block2,garage,ai,0.050000000000000044,5135,MC,41,MC,MC,NA,default,27,Yes,NA,Male,English,NA,36
2398,default,block2,hat,ai,0.040000000000000036,5574,MC,42,MC,MC,NA,default,27,Yes,NA,Male,English,NA,37
2398,default,block2,jon,ai,0.95,3644,establish,43,establish,C,NA,default,27,Yes,NA,Male,English,NA,38
2398,default,block2,muffins,ai,0.040000000000000036,3790,MC,44,MC,MC,NA,default,27,Yes,NA,Male,English,NA,39
2398,default,block2,kids,ai,0.74,10635,MC,45,MC,MC,NA,default,27,Yes,NA,Male,English,NA,40
2398,default,block2,mia,ai,0.97,6942,pretend,46,pretend,C,NA,default,27,Yes,NA,Male,English,NA,41
2398,default,block2,olivia,ai,0.97,8946,discover,47,discover,C,NA,default,27,Yes,NA,Male,English,NA,42
2398,default,block2,emily,ai,0.97,4325,demonstrate,48,demonstrate,C,NA,default,27,Yes,NA,Male,English,NA,43
2398,default,block2,sophia,ai,0.97,5479,prove,49,prove,C,NA,default,27,Yes,NA,Male,English,NA,44
2398,default,block2,jayden,ai,0.94,5059,think,50,think,C,NA,default,27,Yes,NA,Male,English,NA,45
2398,default,block2,tony,ai,0.96,3305,announce,51,announce,C,NA,default,27,Yes,NA,Male,English,NA,46
2398,default,block2,frank,ai,0.96,3718,see,52,see,C,NA,default,27,Yes,NA,Male,English,NA,47
2398,default,block2,grace,ai,0.94,5617,inform,53,inform,C,NA,default,27,Yes,NA,Male,English,NA,48
2398,default,block2,julian,ai,0.96,4187,be_right,54,be_right,C,NA,default,27,Yes,NA,Male,English,NA,49
2398,default,block2,isabella,ai,0.97,4137,be_annoyed,55,be_annoyed,C,NA,default,27,Yes,NA,Male,English,NA,50
2398,default,block2,danny,ai,0.97,4881,confirm,56,confirm,C,NA,default,27,Yes,NA,Male,English,NA,51
2398,default,block2,emma,ai,0.96,5034,confess,57,confess,C,NA,default,27,Yes,NA,Male,English,NA,52
2370,default,block1,pizza,ai,0.10999999999999999,21283,MC,5,MC,MC,NA,default,28,Yes,NA,Other,English,NA,1
2370,default,block1,julian,ai,1,7218,prove,6,prove,C,NA,default,28,Yes,NA,Other,English,NA,2
2370,default,block1,jayden,ai,1,5980,see,7,see,C,NA,default,28,Yes,NA,Other,English,NA,3
2370,default,block1,grace,ai,1,8092,hear,8,hear,C,NA,default,28,Yes,NA,Other,English,NA,4
2370,default,block1,josh,ai,1,8011,establish,9,establish,C,NA,default,28,Yes,NA,Other,English,NA,5
2370,default,block1,garage,ai,0,12025,MC,10,MC,MC,NA,default,28,Yes,NA,Other,English,NA,6
2370,default,block1,mia,ai,1,4616,suggest,11,suggest,C,NA,default,28,Yes,NA,Other,English,NA,7
2370,default,block1,isabella,ai,1,7471,reveal,12,reveal,C,NA,default,28,Yes,NA,Other,English,NA,8
2370,default,block1,danny,ai,1,8886,inform,13,inform,C,NA,default,28,Yes,NA,Other,English,NA,9
2370,default,block1,jackson,ai,1,7808,know,14,know,C,NA,default,28,Yes,NA,Other,English,NA,10
2370,default,block1,emma,ai,1,4758,say,15,say,C,NA,default,28,Yes,NA,Other,English,NA,11
2370,default,block1,ballet,ai,0,6846,MC,16,MC,MC,NA,default,28,Yes,NA,Other,English,NA,12
2370,default,block1,jon,ai,1,6638,be_annoyed,17,be_annoyed,C,NA,default,28,Yes,NA,Other,English,NA,13
2370,default,block1,kids,ai,0.14,13678,MC,18,MC,MC,NA,default,28,Yes,NA,Other,English,NA,14
2370,default,block1,olivia,ai,1,6414,acknowledge,19,acknowledge,C,NA,default,28,Yes,NA,Other,English,NA,15
2370,default,block1,zoe,ai,1,6516,think,20,think,C,NA,default,28,Yes,NA,Other,English,NA,16
2370,default,block1,sophia,ai,1,4698,demonstrate,21,demonstrate,C,NA,default,28,Yes,NA,Other,English,NA,17
2370,default,block1,hat,ai,0,5116,MC,22,MC,MC,NA,default,28,Yes,NA,Other,English,NA,18
2370,default,block1,josie,ai,1,5290,discover,23,discover,C,NA,default,28,Yes,NA,Other,English,NA,19
2370,default,block1,owen,ai,1,4868,confess,24,confess,C,NA,default,28,Yes,NA,Other,English,NA,20
2370,default,block1,mary,ai,0.87,13788,announce,25,announce,C,NA,default,28,Yes,NA,Other,English,NA,21
2370,default,block1,muffins,ai,0,6940,MC,26,MC,MC,NA,default,28,Yes,NA,Other,English,NA,22
2370,default,block1,emily,ai,1,7357,pretend,27,pretend,C,NA,default,28,Yes,NA,Other,English,NA,23
2370,default,block1,frank,ai,1,8651,be_right,28,be_right,C,NA,default,28,Yes,NA,Other,English,NA,24
2370,default,block1,tony,ai,0.95,8160,admit,29,admit,C,NA,default,28,Yes,NA,Other,English,NA,25
2370,default,block1,charley,ai,1,6325,confirm,30,confirm,C,NA,default,28,Yes,NA,Other,English,NA,26
2370,default,block2,tony,projective,0.79,27710,admit,32,admit,C,NA,default,28,Yes,NA,Other,English,NA,27
2370,default,block2,owen,projective,0.98,13710,confess,33,confess,C,NA,default,28,Yes,NA,Other,English,NA,28
2370,default,block2,danny,projective,1,13665,inform,34,inform,C,NA,default,28,Yes,NA,Other,English,NA,29
2370,default,block2,mary,projective,0.22,14092,announce,35,announce,C,NA,default,28,Yes,NA,Other,English,NA,30
2370,default,block2,olivia,projective,1,7744,acknowledge,36,acknowledge,C,NA,default,28,Yes,NA,Other,English,NA,31
2370,default,block2,hat,projective,0,6376,MC,37,MC,MC,NA,default,28,Yes,NA,Other,English,NA,32
2370,default,block2,josh,projective,0.99,9391,establish,38,establish,C,NA,default,28,Yes,NA,Other,English,NA,33
2370,default,block2,emily,projective,0,10676,pretend,39,pretend,C,NA,default,28,Yes,NA,Other,English,NA,34
2370,default,block2,jackson,projective,1,6132,know,40,know,C,NA,default,28,Yes,NA,Other,English,NA,35
2370,default,block2,sophia,projective,0.98,7763,demonstrate,41,demonstrate,C,NA,default,28,Yes,NA,Other,English,NA,36
2370,default,block2,grace,projective,1,27181,hear,42,hear,C,NA,default,28,Yes,NA,Other,English,NA,37
2370,default,block2,jayden,projective,0.88,10205,see,43,see,C,NA,default,28,Yes,NA,Other,English,NA,38
2370,default,block2,kids,projective,0,5978,MC,44,MC,MC,NA,default,28,Yes,NA,Other,English,NA,39
2370,default,block2,julian,projective,0.21,10783,prove,45,prove,C,NA,default,28,Yes,NA,Other,English,NA,40
2370,default,block2,mia,projective,0.08,6566,suggest,46,suggest,C,NA,default,28,Yes,NA,Other,English,NA,41
2370,default,block2,pizza,projective,0,12710,MC,47,MC,MC,NA,default,28,Yes,NA,Other,English,NA,42
2370,default,block2,frank,projective,0,6523,be_right,48,be_right,C,NA,default,28,Yes,NA,Other,English,NA,43
2370,default,block2,garage,projective,0,4255,MC,49,MC,MC,NA,default,28,Yes,NA,Other,English,NA,44
2370,default,block2,isabella,projective,0.07,7190,reveal,50,reveal,C,NA,default,28,Yes,NA,Other,English,NA,45
2370,default,block2,muffins,projective,0,6524,MC,51,MC,MC,NA,default,28,Yes,NA,Other,English,NA,46
2370,default,block2,emma,projective,0,8783,say,52,say,C,NA,default,28,Yes,NA,Other,English,NA,47
2370,default,block2,charley,projective,0.33,13742,confirm,53,confirm,C,NA,default,28,Yes,NA,Other,English,NA,48
2370,default,block2,zoe,projective,0.02,5211,think,54,think,C,NA,default,28,Yes,NA,Other,English,NA,49
2370,default,block2,ballet,projective,0,4132,MC,55,MC,MC,NA,default,28,Yes,NA,Other,English,NA,50
2370,default,block2,josie,projective,1,5748,discover,56,discover,C,NA,default,28,Yes,NA,Other,English,NA,51
2370,default,block2,jon,projective,1,5308,be_annoyed,57,be_annoyed,C,NA,default,28,Yes,NA,Other,English,NA,52
2439,default,block1,emily,ai,1,36423,say,5,say,C,NA,default,26,Yes,NA,Female,English,NA,1
2439,default,block1,josie,ai,1,31148,pretend,6,pretend,C,NA,default,26,Yes,NA,Female,English,NA,2
2439,default,block1,muffins,ai,0,12564,MC,7,MC,MC,NA,default,26,Yes,NA,Female,English,NA,3
2439,default,block1,tony,ai,1,7997,acknowledge,8,acknowledge,C,NA,default,26,Yes,NA,Female,English,NA,4
2439,default,block1,hat,ai,0,5505,MC,9,MC,MC,NA,default,26,Yes,NA,Female,English,NA,5
2439,default,block1,pizza,ai,0,19451,MC,10,MC,MC,NA,default,26,Yes,NA,Female,English,NA,6
2439,default,block1,ballet,ai,0,6390,MC,11,MC,MC,NA,default,26,Yes,NA,Female,English,NA,7
2439,default,block1,olivia,ai,1,11072,be_annoyed,12,be_annoyed,C,NA,default,26,Yes,NA,Female,English,NA,8
2439,default,block1,josh,ai,1,7843,think,13,think,C,NA,default,26,Yes,NA,Female,English,NA,9
2439,default,block1,emma,ai,1,5928,demonstrate,14,demonstrate,C,NA,default,26,Yes,NA,Female,English,NA,10
2439,default,block1,zoe,ai,1,7435,know,15,know,C,NA,default,26,Yes,NA,Female,English,NA,11
2439,default,block1,frank,ai,1,3719,establish,16,establish,C,NA,default,26,Yes,NA,Female,English,NA,12
2439,default,block1,danny,ai,1,4296,announce,17,announce,C,NA,default,26,Yes,NA,Female,English,NA,13
2439,default,block1,garage,ai,0,8501,MC,18,MC,MC,NA,default,26,Yes,NA,Female,English,NA,14
2439,default,block1,jon,ai,1,6890,prove,19,prove,C,NA,default,26,Yes,NA,Female,English,NA,15
2439,default,block1,kids,ai,0,6890,MC,20,MC,MC,NA,default,26,Yes,NA,Female,English,NA,16
2439,default,block1,jackson,ai,1,3395,confirm,21,confirm,C,NA,default,26,Yes,NA,Female,English,NA,17
2439,default,block1,charley,ai,1,4458,admit,22,admit,C,NA,default,26,Yes,NA,Female,English,NA,18
2439,default,block1,isabella,ai,1,5888,see,23,see,C,NA,default,26,Yes,NA,Female,English,NA,19
2439,default,block1,mia,ai,1,3073,reveal,24,reveal,C,NA,default,26,Yes,NA,Female,English,NA,20
2439,default,block1,julian,ai,1,2639,discover,25,discover,C,NA,default,26,Yes,NA,Female,English,NA,21
2439,default,block1,jayden,ai,1,2776,suggest,26,suggest,C,NA,default,26,Yes,NA,Female,English,NA,22
2439,default,block1,sophia,ai,1,5797,inform,27,inform,C,NA,default,26,Yes,NA,Female,English,NA,23
2439,default,block1,grace,ai,1,3909,be_right,28,be_right,C,NA,default,26,Yes,NA,Female,English,NA,24
2439,default,block1,mary,ai,1,2403,hear,29,hear,C,NA,default,26,Yes,NA,Female,English,NA,25
2439,default,block1,owen,ai,1,3055,confess,30,confess,C,NA,default,26,Yes,NA,Female,English,NA,26
2439,default,block2,mary,projective,0.07,17532,hear,32,hear,C,NA,default,26,Yes,NA,Female,English,NA,27
2439,default,block2,isabella,projective,0.83,27061,see,33,see,C,NA,default,26,Yes,NA,Female,English,NA,28
2439,default,block2,garage,projective,0,15714,MC,34,MC,MC,NA,default,26,Yes,NA,Female,English,NA,29
2439,default,block2,jon,projective,0.73,18468,prove,35,prove,C,NA,default,26,Yes,NA,Female,English,NA,30
2439,default,block2,olivia,projective,0.92,13869,be_annoyed,36,be_annoyed,C,NA,default,26,Yes,NA,Female,English,NA,31
2439,default,block2,charley,projective,0.95,24949,admit,37,admit,C,NA,default,26,Yes,NA,Female,English,NA,32
2439,default,block2,emma,projective,0.5,13109,demonstrate,38,demonstrate,C,NA,default,26,Yes,NA,Female,English,NA,33
2439,default,block2,owen,projective,0.13,12895,confess,39,confess,C,NA,default,26,Yes,NA,Female,English,NA,34
2439,default,block2,sophia,projective,0.77,30679,inform,40,inform,C,NA,default,26,Yes,NA,Female,English,NA,35
2439,default,block2,hat,projective,0.01,59178,MC,41,MC,MC,NA,default,26,Yes,NA,Female,English,NA,36
2439,default,block2,frank,projective,0.08,21439,establish,42,establish,C,NA,default,26,Yes,NA,Female,English,NA,37
2439,default,block2,zoe,projective,1,14736,know,43,know,C,NA,default,26,Yes,NA,Female,English,NA,38
2439,default,block2,julian,projective,1,5854,discover,44,discover,C,NA,default,26,Yes,NA,Female,English,NA,39
2439,default,block2,mia,projective,0.09,8710,reveal,45,reveal,C,NA,default,26,Yes,NA,Female,English,NA,40
2439,default,block2,josh,projective,0,9691,think,46,think,C,NA,default,26,Yes,NA,Female,English,NA,41
2439,default,block2,danny,projective,0,12167,announce,47,announce,C,NA,default,26,Yes,NA,Female,English,NA,42
2439,default,block2,jayden,projective,0,14755,suggest,48,suggest,C,NA,default,26,Yes,NA,Female,English,NA,43
2439,default,block2,ballet,projective,0,6245,MC,49,MC,MC,NA,default,26,Yes,NA,Female,English,NA,44
2439,default,block2,jackson,projective,0.01,13312,confirm,50,confirm,C,NA,default,26,Yes,NA,Female,English,NA,45
2439,default,block2,kids,projective,0,8722,MC,51,MC,MC,NA,default,26,Yes,NA,Female,English,NA,46
2439,default,block2,grace,projective,0.24,17225,be_right,52,be_right,C,NA,default,26,Yes,NA,Female,English,NA,47
2439,default,block2,pizza,projective,0,5163,MC,53,MC,MC,NA,default,26,Yes,NA,Female,English,NA,48
2439,default,block2,emily,projective,0,10724,say,54,say,C,NA,default,26,Yes,NA,Female,English,NA,49
2439,default,block2,josie,projective,0,5856,pretend,55,pretend,C,NA,default,26,Yes,NA,Female,English,NA,50
2439,default,block2,tony,projective,0.93,13127,acknowledge,56,acknowledge,C,NA,default,26,Yes,NA,Female,English,NA,51
2439,default,block2,muffins,projective,0,5608,MC,57,MC,MC,NA,default,26,Yes,NA,Female,English,NA,52
2493,default,block1,danny,ai,0.98,11326,confess,5,confess,C,NA,default,44,Yes,NA,Female,english,NA,1
2493,default,block1,jackson,ai,0.97,6153,know,6,know,C,NA,default,44,Yes,NA,Female,english,NA,2
2493,default,block1,josh,ai,0.99,7591,think,7,think,C,NA,default,44,Yes,NA,Female,english,NA,3
2493,default,block1,ballet,ai,0.98,7249,MC,8,MC,MC,NA,default,44,Yes,NA,Female,english,NA,4
2493,default,block1,olivia,ai,0.98,6943,say,9,say,C,NA,default,44,Yes,NA,Female,english,NA,5
2493,default,block1,hat,ai,0.27,18080,MC,10,MC,MC,NA,default,44,Yes,NA,Female,english,NA,6
2493,default,block1,muffins,ai,0.14,10968,MC,11,MC,MC,NA,default,44,Yes,NA,Female,english,NA,7
2493,default,block1,sophia,ai,0.020000000000000018,9648,establish,12,establish,C,NA,default,44,Yes,NA,Female,english,NA,8
2493,default,block1,grace,ai,0.97,9424,be_right,13,be_right,C,NA,default,44,Yes,NA,Female,english,NA,9
2493,default,block1,julian,ai,0.99,7184,discover,14,discover,C,NA,default,44,Yes,NA,Female,english,NA,10
2493,default,block1,mia,ai,0.98,6471,announce,15,announce,C,NA,default,44,Yes,NA,Female,english,NA,11
2493,default,block1,emma,ai,0.99,5480,confirm,16,confirm,C,NA,default,44,Yes,NA,Female,english,NA,12
2493,default,block1,jon,ai,1,7865,inform,17,inform,C,NA,default,44,Yes,NA,Female,english,NA,13
2493,default,block1,tony,ai,0.98,6352,demonstrate,18,demonstrate,C,NA,default,44,Yes,NA,Female,english,NA,14
2493,default,block1,jayden,ai,0.99,5496,hear,19,hear,C,NA,default,44,Yes,NA,Female,english,NA,15
2493,default,block1,mary,ai,0.99,5808,reveal,20,reveal,C,NA,default,44,Yes,NA,Female,english,NA,16
2493,default,block1,pizza,ai,0.30000000000000004,16248,MC,21,MC,MC,NA,default,44,Yes,NA,Female,english,NA,17
2493,default,block1,josie,ai,0.97,5520,prove,22,prove,C,NA,default,44,Yes,NA,Female,english,NA,18
2493,default,block1,kids,ai,0.29000000000000004,6624,MC,23,MC,MC,NA,default,44,Yes,NA,Female,english,NA,19
2493,default,block1,zoe,ai,0.98,5624,pretend,24,pretend,C,NA,default,44,Yes,NA,Female,english,NA,20
2493,default,block1,charley,ai,0.97,5432,be_annoyed,25,be_annoyed,C,NA,default,44,Yes,NA,Female,english,NA,21
2493,default,block1,isabella,ai,0.99,5345,see,26,see,C,NA,default,44,Yes,NA,Female,english,NA,22
2493,default,block1,frank,ai,0.99,4831,suggest,27,suggest,C,NA,default,44,Yes,NA,Female,english,NA,23
2493,default,block1,emily,ai,0.98,5665,admit,28,admit,C,NA,default,44,Yes,NA,Female,english,NA,24
2493,default,block1,owen,ai,0.97,4984,acknowledge,29,acknowledge,C,NA,default,44,Yes,NA,Female,english,NA,25
2493,default,block1,garage,ai,0.25,9671,MC,30,MC,MC,NA,default,44,Yes,NA,Female,english,NA,26
2493,default,block2,muffins,projective,0.03,9055,MC,32,MC,MC,NA,default,44,Yes,NA,Female,english,NA,27
2493,default,block2,danny,projective,0.01,9192,confess,33,confess,C,NA,default,44,Yes,NA,Female,english,NA,28
2493,default,block2,kids,projective,0.02,6944,MC,34,MC,MC,NA,default,44,Yes,NA,Female,english,NA,29
2493,default,block2,sophia,projective,0.01,5600,establish,35,establish,C,NA,default,44,Yes,NA,Female,english,NA,30
2493,default,block2,emma,projective,0.01,5576,confirm,36,confirm,C,NA,default,44,Yes,NA,Female,english,NA,31
2493,default,block2,jayden,projective,0.48,11984,hear,37,hear,C,NA,default,44,Yes,NA,Female,english,NA,32
2493,default,block2,mary,projective,0.5,5416,reveal,38,reveal,C,NA,default,44,Yes,NA,Female,english,NA,33
2493,default,block2,hat,projective,0.01,8793,MC,39,MC,MC,NA,default,44,Yes,NA,Female,english,NA,34
2493,default,block2,frank,projective,0.02,5415,suggest,40,suggest,C,NA,default,44,Yes,NA,Female,english,NA,35
2493,default,block2,isabella,projective,0.74,9855,see,41,see,C,NA,default,44,Yes,NA,Female,english,NA,36
2493,default,block2,emily,projective,0.46,8816,admit,42,admit,C,NA,default,44,Yes,NA,Female,english,NA,37
2493,default,block2,charley,projective,0.99,11873,be_annoyed,43,be_annoyed,C,NA,default,44,Yes,NA,Female,english,NA,38
2493,default,block2,josie,projective,0.47,7311,prove,44,prove,C,NA,default,44,Yes,NA,Female,english,NA,39
2493,default,block2,mia,projective,0.04,7776,announce,45,announce,C,NA,default,44,Yes,NA,Female,english,NA,40
2493,default,block2,jackson,projective,0.49,7376,know,46,know,C,NA,default,44,Yes,NA,Female,english,NA,41
2493,default,block2,jon,projective,0.86,6529,inform,47,inform,C,NA,default,44,Yes,NA,Female,english,NA,42
2493,default,block2,olivia,projective,0.17,6551,say,48,say,C,NA,default,44,Yes,NA,Female,english,NA,43
2493,default,block2,owen,projective,0.49,7680,acknowledge,49,acknowledge,C,NA,default,44,Yes,NA,Female,english,NA,44
2493,default,block2,pizza,projective,0.03,8328,MC,50,MC,MC,NA,default,44,Yes,NA,Female,english,NA,45
2493,default,block2,zoe,projective,0.03,6048,pretend,51,pretend,C,NA,default,44,Yes,NA,Female,english,NA,46
2493,default,block2,josh,projective,0.03,5152,think,52,think,C,NA,default,44,Yes,NA,Female,english,NA,47
2493,default,block2,ballet,projective,0.02,10175,MC,53,MC,MC,NA,default,44,Yes,NA,Female,english,NA,48
2493,default,block2,julian,projective,0.51,6735,discover,54,discover,C,NA,default,44,Yes,NA,Female,english,NA,49
2493,default,block2,garage,projective,0.01,7329,MC,55,MC,MC,NA,default,44,Yes,NA,Female,english,NA,50
2493,default,block2,tony,projective,0.17,7399,demonstrate,56,demonstrate,C,NA,default,44,Yes,NA,Female,english,NA,51
2493,default,block2,grace,projective,0.02,8537,be_right,57,be_right,C,NA,default,44,Yes,NA,Female,english,NA,52
2475,default,block1,jayden,ai,0.87,16927,say,5,say,C,NA,default,30,Yes,NA,Female,English,NA,1
2475,default,block1,emily,ai,0.88,12534,establish,6,establish,C,NA,default,30,Yes,NA,Female,English,NA,2
2475,default,block1,jon,ai,1,5713,know,7,know,C,NA,default,30,Yes,NA,Female,English,NA,3
2475,default,block1,muffins,ai,0.050000000000000044,7973,MC,8,MC,MC,NA,default,30,Yes,NA,Female,English,NA,4
2475,default,block1,owen,ai,0.95,6409,confess,9,confess,C,NA,default,30,Yes,NA,Female,English,NA,5
2475,default,block1,grace,ai,0.99,6392,be_annoyed,10,be_annoyed,C,NA,default,30,Yes,NA,Female,English,NA,6
2475,default,block1,pizza,ai,0.020000000000000018,12154,MC,11,MC,MC,NA,default,30,Yes,NA,Female,English,NA,7
2475,default,block1,isabella,ai,0.98,7353,see,12,see,C,NA,default,30,Yes,NA,Female,English,NA,8
2475,default,block1,julian,ai,0.98,6637,suggest,13,suggest,C,NA,default,30,Yes,NA,Female,English,NA,9
2475,default,block1,josh,ai,0.97,4718,announce,14,announce,C,NA,default,30,Yes,NA,Female,English,NA,10
2475,default,block1,ballet,ai,0.020000000000000018,6057,MC,15,MC,MC,NA,default,30,Yes,NA,Female,English,NA,11
2475,default,block1,emma,ai,0.99,7295,be_right,16,be_right,C,NA,default,30,Yes,NA,Female,English,NA,12
2475,default,block1,josie,ai,0.99,5557,hear,17,hear,C,NA,default,30,Yes,NA,Female,English,NA,13
2475,default,block1,sophia,ai,0.98,4201,confirm,18,confirm,C,NA,default,30,Yes,NA,Female,English,NA,14
2475,default,block1,charley,ai,0.99,4574,prove,19,prove,C,NA,default,30,Yes,NA,Female,English,NA,15
2475,default,block1,tony,ai,0.8200000000000001,11365,demonstrate,20,demonstrate,C,NA,default,30,Yes,NA,Female,English,NA,16
2475,default,block1,mary,ai,0.83,7027,discover,21,discover,C,NA,default,30,Yes,NA,Female,English,NA,17
2475,default,block1,garage,ai,0.49,16822,MC,22,MC,MC,NA,default,30,Yes,NA,Female,English,NA,18
2475,default,block1,frank,ai,0.96,4997,reveal,23,reveal,C,NA,default,30,Yes,NA,Female,English,NA,19
2475,default,block1,kids,ai,0.17000000000000004,11390,MC,24,MC,MC,NA,default,30,Yes,NA,Female,English,NA,20
2475,default,block1,danny,ai,0.92,7141,pretend,25,pretend,C,NA,default,30,Yes,NA,Female,English,NA,21
2475,default,block1,mia,ai,0.98,5457,admit,26,admit,C,NA,default,30,Yes,NA,Female,English,NA,22
2475,default,block1,hat,ai,0.06999999999999995,33107,MC,27,MC,MC,NA,default,30,Yes,NA,Female,English,NA,23
2475,default,block1,jackson,ai,0.98,10144,think,28,think,C,NA,default,30,Yes,NA,Female,English,NA,24
2475,default,block1,zoe,ai,0.91,34217,inform,29,inform,C,NA,default,30,Yes,NA,Female,English,NA,25
2475,default,block1,olivia,ai,0.96,4837,acknowledge,30,acknowledge,C,NA,default,30,Yes,NA,Female,English,NA,26
2475,default,block2,hat,projective,0.06,8642,MC,32,MC,MC,NA,default,30,Yes,NA,Female,English,NA,27
2475,default,block2,owen,projective,0.04,4257,confess,33,confess,C,NA,default,30,Yes,NA,Female,English,NA,28
2475,default,block2,frank,projective,0.5,6452,reveal,34,reveal,C,NA,default,30,Yes,NA,Female,English,NA,29
2475,default,block2,olivia,projective,0.73,4629,acknowledge,35,acknowledge,C,NA,default,30,Yes,NA,Female,English,NA,30
2475,default,block2,muffins,projective,0.05,5705,MC,36,MC,MC,NA,default,30,Yes,NA,Female,English,NA,31
2475,default,block2,zoe,projective,0.78,5667,inform,37,inform,C,NA,default,30,Yes,NA,Female,English,NA,32
2475,default,block2,josh,projective,0.8,6053,announce,38,announce,C,NA,default,30,Yes,NA,Female,English,NA,33
2475,default,block2,mary,projective,0.89,5613,discover,39,discover,C,NA,default,30,Yes,NA,Female,English,NA,34
2475,default,block2,danny,projective,0.5,41674,pretend,40,pretend,C,NA,default,30,Yes,NA,Female,English,NA,35
2475,default,block2,jayden,projective,0.02,11918,say,41,say,C,NA,default,30,Yes,NA,Female,English,NA,36
2475,default,block2,mia,projective,0.87,7015,admit,42,admit,C,NA,default,30,Yes,NA,Female,English,NA,37
2475,default,block2,charley,projective,0.03,8697,prove,43,prove,C,NA,default,30,Yes,NA,Female,English,NA,38
2475,default,block2,julian,projective,0.49,7145,suggest,44,suggest,C,NA,default,30,Yes,NA,Female,English,NA,39
2475,default,block2,isabella,projective,0.84,7927,see,45,see,C,NA,default,30,Yes,NA,Female,English,NA,40
2475,default,block2,josie,projective,0.95,31292,hear,46,hear,C,NA,default,30,Yes,NA,Female,English,NA,41
2475,default,block2,kids,projective,0,5935,MC,47,MC,MC,NA,default,30,Yes,NA,Female,English,NA,42
2475,default,block2,garage,projective,0.05,4756,MC,48,MC,MC,NA,default,30,Yes,NA,Female,English,NA,43
2475,default,block2,emily,projective,0.04,3602,establish,49,establish,C,NA,default,30,Yes,NA,Female,English,NA,44
2475,default,block2,jackson,projective,0.03,3399,think,50,think,C,NA,default,30,Yes,NA,Female,English,NA,45
2475,default,block2,ballet,projective,0.02,3176,MC,51,MC,MC,NA,default,30,Yes,NA,Female,English,NA,46
2475,default,block2,pizza,projective,0.02,4413,MC,52,MC,MC,NA,default,30,Yes,NA,Female,English,NA,47
2475,default,block2,emma,projective,0.02,4696,be_right,53,be_right,C,NA,default,30,Yes,NA,Female,English,NA,48
2475,default,block2,grace,projective,0.94,5005,be_annoyed,54,be_annoyed,C,NA,default,30,Yes,NA,Female,English,NA,49
2475,default,block2,sophia,projective,0.14,7234,confirm,55,confirm,C,NA,default,30,Yes,NA,Female,English,NA,50
2475,default,block2,tony,projective,0.49,4379,demonstrate,56,demonstrate,C,NA,default,30,Yes,NA,Female,English,NA,51
2475,default,block2,jon,projective,0.99,4660,know,57,know,C,NA,default,30,Yes,NA,Female,English,NA,52
2479,default,block1,zoe,projective,0.85,13846,inform,5,inform,C,NA,default,50,Yes,NA,Female,english,NA,1
2479,default,block1,olivia,projective,0.94,8444,prove,6,prove,C,NA,default,50,Yes,NA,Female,english,NA,2
2479,default,block1,grace,projective,0.88,7525,demonstrate,7,demonstrate,C,NA,default,50,Yes,NA,Female,english,NA,3
2479,default,block1,tony,projective,0.95,9208,announce,8,announce,C,NA,default,50,Yes,NA,Female,english,NA,4
2479,default,block1,isabella,projective,0.11,9668,pretend,9,pretend,C,NA,default,50,Yes,NA,Female,english,NA,5
2479,default,block1,emily,projective,0.94,10140,confess,10,confess,C,NA,default,50,Yes,NA,Female,english,NA,6
2479,default,block1,charley,projective,0.96,10183,be_annoyed,11,be_annoyed,C,NA,default,50,Yes,NA,Female,english,NA,7
2479,default,block1,mia,projective,0.14,9011,be_right,12,be_right,C,NA,default,50,Yes,NA,Female,english,NA,8
2479,default,block1,muffins,projective,0.02,7528,MC,13,MC,MC,NA,default,50,Yes,NA,Female,english,NA,9
2479,default,block1,ballet,projective,0.04,6684,MC,14,MC,MC,NA,default,50,Yes,NA,Female,english,NA,10
2479,default,block1,mary,projective,0.99,6764,discover,15,discover,C,NA,default,50,Yes,NA,Female,english,NA,11
2479,default,block1,josh,projective,0.98,12000,suggest,16,suggest,C,NA,default,50,Yes,NA,Female,english,NA,12
2479,default,block1,josie,projective,0.96,7436,reveal,17,reveal,C,NA,default,50,Yes,NA,Female,english,NA,13
2479,default,block1,jackson,projective,0.97,6540,hear,18,hear,C,NA,default,50,Yes,NA,Female,english,NA,14
2479,default,block1,owen,projective,0.98,8692,see,19,see,C,NA,default,50,Yes,NA,Female,english,NA,15
2479,default,block1,julian,projective,0.71,6596,establish,20,establish,C,NA,default,50,Yes,NA,Female,english,NA,16
2479,default,block1,sophia,projective,0.19,6252,think,21,think,C,NA,default,50,Yes,NA,Female,english,NA,17
2479,default,block1,emma,projective,0.89,8679,know,22,know,C,NA,default,50,Yes,NA,Female,english,NA,18
2479,default,block1,jayden,projective,0.72,10044,confirm,23,confirm,C,NA,default,50,Yes,NA,Female,english,NA,19
2479,default,block1,pizza,projective,0.96,9651,MC,24,MC,MC,NA,default,50,Yes,NA,Female,english,NA,20
2479,default,block1,jon,projective,0.96,7651,acknowledge,25,acknowledge,C,NA,default,50,Yes,NA,Female,english,NA,21
2479,default,block1,garage,projective,0.19,8436,MC,26,MC,MC,NA,default,50,Yes,NA,Female,english,NA,22
2479,default,block1,danny,projective,0.86,6364,admit,27,admit,C,NA,default,50,Yes,NA,Female,english,NA,23
2479,default,block1,frank,projective,0.19,7268,say,28,say,C,NA,default,50,Yes,NA,Female,english,NA,24
2479,default,block1,kids,projective,0.2,14044,MC,29,MC,MC,NA,default,50,Yes,NA,Female,english,NA,25
2479,default,block1,hat,projective,0.48,8591,MC,30,MC,MC,NA,default,50,Yes,NA,Female,english,NA,26
2479,default,block2,olivia,ai,0.98,10051,prove,32,prove,C,NA,default,50,Yes,NA,Female,english,NA,27
2479,default,block2,josie,ai,0.96,7337,reveal,33,reveal,C,NA,default,50,Yes,NA,Female,english,NA,28
2479,default,block2,isabella,ai,0.91,18432,pretend,34,pretend,C,NA,default,50,Yes,NA,Female,english,NA,29
2479,default,block2,emma,ai,0.91,14406,know,35,know,C,NA,default,50,Yes,NA,Female,english,NA,30
2479,default,block2,charley,ai,0.96,9284,be_annoyed,36,be_annoyed,C,NA,default,50,Yes,NA,Female,english,NA,31
2479,default,block2,sophia,ai,0.97,5952,think,37,think,C,NA,default,50,Yes,NA,Female,english,NA,32
2479,default,block2,josh,ai,0.98,7400,suggest,38,suggest,C,NA,default,50,Yes,NA,Female,english,NA,33
2479,default,block2,frank,ai,0.99,6797,say,39,say,C,NA,default,50,Yes,NA,Female,english,NA,34
2479,default,block2,jackson,ai,0.98,4440,hear,40,hear,C,NA,default,50,Yes,NA,Female,english,NA,35
2479,default,block2,grace,ai,0.98,12427,demonstrate,41,demonstrate,C,NA,default,50,Yes,NA,Female,english,NA,36
2479,default,block2,garage,ai,0.040000000000000036,10996,MC,42,MC,MC,NA,default,50,Yes,NA,Female,english,NA,37
2479,default,block2,jayden,ai,0.96,9208,confirm,43,confirm,C,NA,default,50,Yes,NA,Female,english,NA,38
2479,default,block2,pizza,ai,0.010000000000000009,7264,MC,44,MC,MC,NA,default,50,Yes,NA,Female,english,NA,39
2479,default,block2,mary,ai,0.98,7645,discover,45,discover,C,NA,default,50,Yes,NA,Female,english,NA,40
2479,default,block2,danny,ai,0.97,6459,admit,46,admit,C,NA,default,50,Yes,NA,Female,english,NA,41
2479,default,block2,julian,ai,0.99,5852,establish,47,establish,C,NA,default,50,Yes,NA,Female,english,NA,42
2479,default,block2,zoe,ai,0.97,6085,inform,48,inform,C,NA,default,50,Yes,NA,Female,english,NA,43
2479,default,block2,emily,ai,0.97,12279,confess,49,confess,C,NA,default,50,Yes,NA,Female,english,NA,44
2479,default,block2,hat,ai,0.030000000000000027,8484,MC,50,MC,MC,NA,default,50,Yes,NA,Female,english,NA,45
2479,default,block2,muffins,ai,0.030000000000000027,8544,MC,51,MC,MC,NA,default,50,Yes,NA,Female,english,NA,46
2479,default,block2,mia,ai,0.97,9416,be_right,52,be_right,C,NA,default,50,Yes,NA,Female,english,NA,47
2479,default,block2,ballet,ai,0.030000000000000027,7320,MC,53,MC,MC,NA,default,50,Yes,NA,Female,english,NA,48
2479,default,block2,kids,ai,0.030000000000000027,11004,MC,54,MC,MC,NA,default,50,Yes,NA,Female,english,NA,49
2479,default,block2,tony,ai,0.97,8272,announce,55,announce,C,NA,default,50,Yes,NA,Female,english,NA,50
2479,default,block2,owen,ai,0.97,5436,see,56,see,C,NA,default,50,Yes,NA,Female,english,NA,51
2479,default,block2,jon,ai,0.96,4681,acknowledge,57,acknowledge,C,NA,default,50,Yes,NA,Female,english,NA,52
2371,default,block1,mary,projective,0.97,13907,see,5,see,C,NA,default,24,Yes,NA,Female,English,NA,1
2371,default,block1,garage,projective,0.17,11231,MC,6,MC,MC,NA,default,24,Yes,NA,Female,English,NA,2
2371,default,block1,sophia,projective,0.42,13092,say,7,say,C,NA,default,24,Yes,NA,Female,English,NA,3
2371,default,block1,jon,projective,0.97,10096,discover,8,discover,C,NA,default,24,Yes,NA,Female,English,NA,4
2371,default,block1,owen,projective,0.25,11033,establish,9,establish,C,NA,default,24,Yes,NA,Female,English,NA,5
2371,default,block1,isabella,projective,0.95,7183,be_annoyed,10,be_annoyed,C,NA,default,24,Yes,NA,Female,English,NA,6
2371,default,block1,tony,projective,0.43,9650,pretend,11,pretend,C,NA,default,24,Yes,NA,Female,English,NA,7
2371,default,block1,frank,projective,0.36,6317,confirm,12,confirm,C,NA,default,24,Yes,NA,Female,English,NA,8
2371,default,block1,zoe,projective,0.81,19659,inform,13,inform,C,NA,default,24,Yes,NA,Female,English,NA,9
2371,default,block1,muffins,projective,0.37,7717,MC,14,MC,MC,NA,default,24,Yes,NA,Female,English,NA,10
2371,default,block1,josh,projective,0.8,17706,hear,15,hear,C,NA,default,24,Yes,NA,Female,English,NA,11
2371,default,block1,julian,projective,0.88,7183,acknowledge,16,acknowledge,C,NA,default,24,Yes,NA,Female,English,NA,12
2371,default,block1,pizza,projective,0.36,42292,MC,17,MC,MC,NA,default,24,Yes,NA,Female,English,NA,13
2371,default,block1,jayden,projective,0.68,5622,admit,18,admit,C,NA,default,24,Yes,NA,Female,English,NA,14
2371,default,block1,grace,projective,0.67,9199,confess,19,confess,C,NA,default,24,Yes,NA,Female,English,NA,15
2371,default,block1,emily,projective,0.13,4951,prove,20,prove,C,NA,default,24,Yes,NA,Female,English,NA,16
2371,default,block1,jackson,projective,0.61,7479,announce,21,announce,C,NA,default,24,Yes,NA,Female,English,NA,17
2371,default,block1,josie,projective,0.8,3814,know,22,know,C,NA,default,24,Yes,NA,Female,English,NA,18
2371,default,block1,mia,projective,0.08,6827,think,23,think,C,NA,default,24,Yes,NA,Female,English,NA,19
2371,default,block1,ballet,projective,0,7856,MC,24,MC,MC,NA,default,24,Yes,NA,Female,English,NA,20
2371,default,block1,danny,projective,0.75,7983,reveal,25,reveal,C,NA,default,24,Yes,NA,Female,English,NA,21
2371,default,block1,hat,projective,0.25,7922,MC,26,MC,MC,NA,default,24,Yes,NA,Female,English,NA,22
2371,default,block1,emma,projective,0.71,27269,be_right,27,be_right,C,NA,default,24,Yes,NA,Female,English,NA,23
2371,default,block1,charley,projective,0.27,14594,demonstrate,28,demonstrate,C,NA,default,24,Yes,NA,Female,English,NA,24
2371,default,block1,olivia,projective,0.15,5130,suggest,29,suggest,C,NA,default,24,Yes,NA,Female,English,NA,25
2371,default,block1,kids,projective,0.15,7577,MC,30,MC,MC,NA,default,24,Yes,NA,Female,English,NA,26
2371,default,block2,sophia,ai,0.75,14386,say,32,say,C,NA,default,24,Yes,NA,Female,English,NA,27
2371,default,block2,tony,ai,0.9,19182,pretend,33,pretend,C,NA,default,24,Yes,NA,Female,English,NA,28
2371,default,block2,jon,ai,0.99,6130,discover,34,discover,C,NA,default,24,Yes,NA,Female,English,NA,29
2371,default,block2,isabella,ai,0.74,4013,be_annoyed,35,be_annoyed,C,NA,default,24,Yes,NA,Female,English,NA,30
2371,default,block2,zoe,ai,0.84,14825,inform,36,inform,C,NA,default,24,Yes,NA,Female,English,NA,31
2371,default,block2,grace,ai,0.86,8704,confess,37,confess,C,NA,default,24,Yes,NA,Female,English,NA,32
2371,default,block2,emma,ai,0.6699999999999999,29736,be_right,38,be_right,C,NA,default,24,Yes,NA,Female,English,NA,33
2371,default,block2,josh,ai,0.8,4137,hear,39,hear,C,NA,default,24,Yes,NA,Female,English,NA,34
2371,default,block2,josie,ai,0.85,3995,know,40,know,C,NA,default,24,Yes,NA,Female,English,NA,35
2371,default,block2,julian,ai,0.84,7236,acknowledge,41,acknowledge,C,NA,default,24,Yes,NA,Female,English,NA,36
2371,default,block2,jackson,ai,0.85,9868,announce,42,announce,C,NA,default,24,Yes,NA,Female,English,NA,37
2371,default,block2,jayden,ai,0.73,16357,admit,43,admit,C,NA,default,24,Yes,NA,Female,English,NA,38
2371,default,block2,ballet,ai,0.43999999999999995,17244,MC,44,MC,MC,NA,default,24,Yes,NA,Female,English,NA,39
2371,default,block2,muffins,ai,0.5,10195,MC,45,MC,MC,NA,default,24,Yes,NA,Female,English,NA,40
2371,default,block2,charley,ai,0.64,7286,demonstrate,46,demonstrate,C,NA,default,24,Yes,NA,Female,English,NA,41
2371,default,block2,danny,ai,0.4,9408,reveal,47,reveal,C,NA,default,24,Yes,NA,Female,English,NA,42
2371,default,block2,hat,ai,0.43000000000000005,5549,MC,48,MC,MC,NA,default,24,Yes,NA,Female,English,NA,43
2371,default,block2,olivia,ai,0.61,6541,suggest,49,suggest,C,NA,default,24,Yes,NA,Female,English,NA,44
2371,default,block2,mia,ai,0.85,8902,think,50,think,C,NA,default,24,Yes,NA,Female,English,NA,45
2371,default,block2,emily,ai,0.6599999999999999,4836,prove,51,prove,C,NA,default,24,Yes,NA,Female,English,NA,46
2371,default,block2,kids,ai,0.98,7871,MC,52,MC,MC,NA,default,24,Yes,NA,Female,English,NA,47
2371,default,block2,frank,ai,0.74,6910,confirm,53,confirm,C,NA,default,24,Yes,NA,Female,English,NA,48
2371,default,block2,garage,ai,0.33999999999999997,8519,MC,54,MC,MC,NA,default,24,Yes,NA,Female,English,NA,49
2371,default,block2,owen,ai,0.76,5919,establish,55,establish,C,NA,default,24,Yes,NA,Female,English,NA,50
2371,default,block2,pizza,ai,0.8200000000000001,12839,MC,56,MC,MC,NA,default,24,Yes,NA,Female,English,NA,51
2371,default,block2,mary,ai,0.88,5512,see,57,see,C,NA,default,24,Yes,NA,Female,English,NA,52
2336,default,block1,kids,ai,0.18999999999999995,21156,MC,5,MC,MC,NA,default,23,Yes,NA,Female,English,NA,1
2336,default,block1,tony,ai,0.94,9754,be_right,6,be_right,C,NA,default,23,Yes,NA,Female,English,NA,2
2336,default,block1,emma,ai,0.94,9211,acknowledge,7,acknowledge,C,NA,default,23,Yes,NA,Female,English,NA,3
2336,default,block1,grace,ai,0.9299999999999999,10735,reveal,8,reveal,C,NA,default,23,Yes,NA,Female,English,NA,4
2336,default,block1,jayden,ai,0.91,7984,announce,9,announce,C,NA,default,23,Yes,NA,Female,English,NA,5
2336,default,block1,josh,ai,0.96,12999,pretend,10,pretend,C,NA,default,23,Yes,NA,Female,English,NA,6
2336,default,block1,jackson,ai,0.91,10882,confess,11,confess,C,NA,default,23,Yes,NA,Female,English,NA,7
2336,default,block1,mia,ai,0.6599999999999999,6984,hear,12,hear,C,NA,default,23,Yes,NA,Female,English,NA,8
2336,default,block1,ballet,ai,0.06999999999999995,11488,MC,13,MC,MC,NA,default,23,Yes,NA,Female,English,NA,9
2336,default,block1,olivia,ai,0.83,6094,suggest,14,suggest,C,NA,default,23,Yes,NA,Female,English,NA,10
2336,default,block1,josie,ai,0.9299999999999999,10702,know,15,know,C,NA,default,23,Yes,NA,Female,English,NA,11
2336,default,block1,owen,ai,0.9,5614,think,16,think,C,NA,default,23,Yes,NA,Female,English,NA,12
2336,default,block1,jon,ai,0.85,4890,see,17,see,C,NA,default,23,Yes,NA,Female,English,NA,13
2336,default,block1,isabella,ai,0.98,6393,establish,18,establish,C,NA,default,23,Yes,NA,Female,English,NA,14
2336,default,block1,mary,ai,0.99,12497,demonstrate,19,demonstrate,C,NA,default,23,Yes,NA,Female,English,NA,15
2336,default,block1,frank,ai,0.95,5333,inform,20,inform,C,NA,default,23,Yes,NA,Female,English,NA,16
2336,default,block1,danny,ai,0.91,2815,admit,21,admit,C,NA,default,23,Yes,NA,Female,English,NA,17
2336,default,block1,garage,ai,0.12,7632,MC,22,MC,MC,NA,default,23,Yes,NA,Female,English,NA,18
2336,default,block1,zoe,ai,0.91,6276,discover,23,discover,C,NA,default,23,Yes,NA,Female,English,NA,19
2336,default,block1,hat,ai,0.020000000000000018,4189,MC,24,MC,MC,NA,default,23,Yes,NA,Female,English,NA,20
2336,default,block1,julian,ai,0.9299999999999999,5766,be_annoyed,25,be_annoyed,C,NA,default,23,Yes,NA,Female,English,NA,21
2336,default,block1,sophia,ai,0.94,3793,say,26,say,C,NA,default,23,Yes,NA,Female,English,NA,22
2336,default,block1,charley,ai,0.89,3172,confirm,27,confirm,C,NA,default,23,Yes,NA,Female,English,NA,23
2336,default,block1,emily,ai,0.87,2512,prove,28,prove,C,NA,default,23,Yes,NA,Female,English,NA,24
2336,default,block1,muffins,ai,0.020000000000000018,3896,MC,29,MC,MC,NA,default,23,Yes,NA,Female,English,NA,25
2336,default,block1,pizza,ai,0.050000000000000044,5207,MC,30,MC,MC,NA,default,23,Yes,NA,Female,English,NA,26
2336,default,block2,jayden,projective,0.84,8820,announce,32,announce,C,NA,default,23,Yes,NA,Female,English,NA,27
2336,default,block2,danny,projective,0.19,10151,admit,33,admit,C,NA,default,23,Yes,NA,Female,English,NA,28
2336,default,block2,zoe,projective,0.91,5388,discover,34,discover,C,NA,default,23,Yes,NA,Female,English,NA,29
2336,default,block2,isabella,projective,0.23,4717,establish,35,establish,C,NA,default,23,Yes,NA,Female,English,NA,30
2336,default,block2,josie,projective,0.94,5043,know,36,know,C,NA,default,23,Yes,NA,Female,English,NA,31
2336,default,block2,sophia,projective,0.08,5738,say,37,say,C,NA,default,23,Yes,NA,Female,English,NA,32
2336,default,block2,pizza,projective,0.17,6055,MC,38,MC,MC,NA,default,23,Yes,NA,Female,English,NA,33
2336,default,block2,ballet,projective,0.18,6192,MC,39,MC,MC,NA,default,23,Yes,NA,Female,English,NA,34
2336,default,block2,tony,projective,0.17,5628,be_right,40,be_right,C,NA,default,23,Yes,NA,Female,English,NA,35
2336,default,block2,olivia,projective,0.1,6116,suggest,41,suggest,C,NA,default,23,Yes,NA,Female,English,NA,36
2336,default,block2,mia,projective,0.92,5448,hear,42,hear,C,NA,default,23,Yes,NA,Female,English,NA,37
2336,default,block2,muffins,projective,0.1,5107,MC,43,MC,MC,NA,default,23,Yes,NA,Female,English,NA,38
2336,default,block2,frank,projective,0.88,5899,inform,44,inform,C,NA,default,23,Yes,NA,Female,English,NA,39
2336,default,block2,grace,projective,0.87,6491,reveal,45,reveal,C,NA,default,23,Yes,NA,Female,English,NA,40
2336,default,block2,emily,projective,0.12,9042,prove,46,prove,C,NA,default,23,Yes,NA,Female,English,NA,41
2336,default,block2,garage,projective,0.06,4961,MC,47,MC,MC,NA,default,23,Yes,NA,Female,English,NA,42
2336,default,block2,mary,projective,0.2,6847,demonstrate,48,demonstrate,C,NA,default,23,Yes,NA,Female,English,NA,43
2336,default,block2,jackson,projective,0.2,6025,confess,49,confess,C,NA,default,23,Yes,NA,Female,English,NA,44
2336,default,block2,owen,projective,0.14,6408,think,50,think,C,NA,default,23,Yes,NA,Female,English,NA,45
2336,default,block2,kids,projective,0.17,5024,MC,51,MC,MC,NA,default,23,Yes,NA,Female,English,NA,46
2336,default,block2,emma,projective,0.12,6458,acknowledge,52,acknowledge,C,NA,default,23,Yes,NA,Female,English,NA,47
2336,default,block2,josh,projective,0.07,5634,pretend,53,pretend,C,NA,default,23,Yes,NA,Female,English,NA,48
2336,default,block2,julian,projective,0.96,7063,be_annoyed,54,be_annoyed,C,NA,default,23,Yes,NA,Female,English,NA,49
2336,default,block2,charley,projective,0.13,5149,confirm,55,confirm,C,NA,default,23,Yes,NA,Female,English,NA,50
2336,default,block2,hat,projective,0.06,4957,MC,56,MC,MC,NA,default,23,Yes,NA,Female,English,NA,51
2336,default,block2,jon,projective,0.17,3416,see,57,see,C,NA,default,23,Yes,NA,Female,English,NA,52
2432,default,block1,garage,projective,0.49,8882,MC,5,MC,MC,NA,default,29,Yes,NA,Female,English,NA,1
2432,default,block1,zoe,projective,1,7833,acknowledge,6,acknowledge,C,NA,default,29,Yes,NA,Female,English,NA,2
2432,default,block1,hat,projective,0.15,7944,MC,7,MC,MC,NA,default,29,Yes,NA,Female,English,NA,3
2432,default,block1,sophia,projective,0.11,6714,prove,8,prove,C,NA,default,29,Yes,NA,Female,English,NA,4
2432,default,block1,jon,projective,0.96,13011,hear,9,hear,C,NA,default,29,Yes,NA,Female,English,NA,5
2432,default,block1,emma,projective,0.23,6352,be_right,10,be_right,C,NA,default,29,Yes,NA,Female,English,NA,6
2432,default,block1,isabella,projective,0.95,5826,be_annoyed,11,be_annoyed,C,NA,default,29,Yes,NA,Female,English,NA,7
2432,default,block1,grace,projective,0.52,11271,demonstrate,12,demonstrate,C,NA,default,29,Yes,NA,Female,English,NA,8
2432,default,block1,julian,projective,0.92,5482,reveal,13,reveal,C,NA,default,29,Yes,NA,Female,English,NA,9
2432,default,block1,muffins,projective,0.1,5266,MC,14,MC,MC,NA,default,29,Yes,NA,Female,English,NA,10
2432,default,block1,olivia,projective,0.87,4007,know,15,know,C,NA,default,29,Yes,NA,Female,English,NA,11
2432,default,block1,mary,projective,0.08,3653,suggest,16,suggest,C,NA,default,29,Yes,NA,Female,English,NA,12
2432,default,block1,tony,projective,0.06,3832,confirm,17,confirm,C,NA,default,29,Yes,NA,Female,English,NA,13
2432,default,block1,jayden,projective,0.48,6186,confess,18,confess,C,NA,default,29,Yes,NA,Female,English,NA,14
2432,default,block1,pizza,projective,0.16,16455,MC,19,MC,MC,NA,default,29,Yes,NA,Female,English,NA,15
2432,default,block1,josh,projective,0.49,9777,admit,20,admit,C,NA,default,29,Yes,NA,Female,English,NA,16
2432,default,block1,danny,projective,0.83,3102,see,21,see,C,NA,default,29,Yes,NA,Female,English,NA,17
2432,default,block1,emily,projective,0.24,4591,think,22,think,C,NA,default,29,Yes,NA,Female,English,NA,18
2432,default,block1,ballet,projective,0.12,4152,MC,23,MC,MC,NA,default,29,Yes,NA,Female,English,NA,19
2432,default,block1,mia,projective,0.1,3163,say,24,say,C,NA,default,29,Yes,NA,Female,English,NA,20
2432,default,block1,charley,projective,0.13,3170,establish,25,establish,C,NA,default,29,Yes,NA,Female,English,NA,21
2432,default,block1,kids,projective,0.13,4103,MC,26,MC,MC,NA,default,29,Yes,NA,Female,English,NA,22
2432,default,block1,owen,projective,0.48,4239,discover,27,discover,C,NA,default,29,Yes,NA,Female,English,NA,23
2432,default,block1,frank,projective,0.22,5280,pretend,28,pretend,C,NA,default,29,Yes,NA,Female,English,NA,24
2432,default,block1,jackson,projective,0.83,4581,announce,29,announce,C,NA,default,29,Yes,NA,Female,English,NA,25
2432,default,block1,josie,projective,0.94,9436,inform,30,inform,C,NA,default,29,Yes,NA,Female,English,NA,26
2432,default,block2,sophia,ai,0.97,4365,prove,32,prove,C,NA,default,29,Yes,NA,Female,English,NA,27
2432,default,block2,mary,ai,0.95,4481,suggest,33,suggest,C,NA,default,29,Yes,NA,Female,English,NA,28
2432,default,block2,jackson,ai,0.97,4536,announce,34,announce,C,NA,default,29,Yes,NA,Female,English,NA,29
2432,default,block2,emily,ai,0.98,8806,think,35,think,C,NA,default,29,Yes,NA,Female,English,NA,30
2432,default,block2,garage,ai,0.030000000000000027,4663,MC,36,MC,MC,NA,default,29,Yes,NA,Female,English,NA,31
2432,default,block2,jon,ai,0.97,3631,hear,37,hear,C,NA,default,29,Yes,NA,Female,English,NA,32
2432,default,block2,zoe,ai,0.99,3508,acknowledge,38,acknowledge,C,NA,default,29,Yes,NA,Female,English,NA,33
2432,default,block2,pizza,ai,0.040000000000000036,5170,MC,39,MC,MC,NA,default,29,Yes,NA,Female,English,NA,34
2432,default,block2,muffins,ai,0.040000000000000036,4046,MC,40,MC,MC,NA,default,29,Yes,NA,Female,English,NA,35
2432,default,block2,danny,ai,0.96,3446,see,41,see,C,NA,default,29,Yes,NA,Female,English,NA,36
2432,default,block2,emma,ai,0.97,5843,be_right,42,be_right,C,NA,default,29,Yes,NA,Female,English,NA,37
2432,default,block2,jayden,ai,0.94,5304,confess,43,confess,C,NA,default,29,Yes,NA,Female,English,NA,38
2432,default,block2,owen,ai,0.9299999999999999,3800,discover,44,discover,C,NA,default,29,Yes,NA,Female,English,NA,39
2432,default,block2,kids,ai,0,5792,MC,45,MC,MC,NA,default,29,Yes,NA,Female,English,NA,40
2432,default,block2,grace,ai,0.96,2928,demonstrate,46,demonstrate,C,NA,default,29,Yes,NA,Female,English,NA,41
2432,default,block2,hat,ai,0.040000000000000036,3542,MC,47,MC,MC,NA,default,29,Yes,NA,Female,English,NA,42
2432,default,block2,josh,ai,0.96,4890,admit,48,admit,C,NA,default,29,Yes,NA,Female,English,NA,43
2432,default,block2,charley,ai,0.95,3085,establish,49,establish,C,NA,default,29,Yes,NA,Female,English,NA,44
2432,default,block2,isabella,ai,0.96,6362,be_annoyed,50,be_annoyed,C,NA,default,29,Yes,NA,Female,English,NA,45
2432,default,block2,tony,ai,0.94,3615,confirm,51,confirm,C,NA,default,29,Yes,NA,Female,English,NA,46
2432,default,block2,josie,ai,0.97,4518,inform,52,inform,C,NA,default,29,Yes,NA,Female,English,NA,47
2432,default,block2,olivia,ai,0.99,7477,know,53,know,C,NA,default,29,Yes,NA,Female,English,NA,48
2432,default,block2,frank,ai,0.9299999999999999,5600,pretend,54,pretend,C,NA,default,29,Yes,NA,Female,English,NA,49
2432,default,block2,mia,ai,0.97,12158,say,55,say,C,NA,default,29,Yes,NA,Female,English,NA,50
2432,default,block2,ballet,ai,0.020000000000000018,4074,MC,56,MC,MC,NA,default,29,Yes,NA,Female,English,NA,51
2432,default,block2,julian,ai,0.97,3581,reveal,57,reveal,C,NA,default,29,Yes,NA,Female,English,NA,52
2288,default,block1,isabella,projective,0.05,14396,demonstrate,5,demonstrate,C,NA,default,27,Yes,NA,Female,English,NA,1
2288,default,block1,tony,projective,0.06,9254,prove,6,prove,C,NA,default,27,Yes,NA,Female,English,NA,2
2288,default,block1,jayden,projective,0.94,5493,hear,7,hear,C,NA,default,27,Yes,NA,Female,English,NA,3
2288,default,block1,owen,projective,0.07,7252,be_right,8,be_right,C,NA,default,27,Yes,NA,Female,English,NA,4
2288,default,block1,emma,projective,0.41,11600,reveal,9,reveal,C,NA,default,27,Yes,NA,Female,English,NA,5
2288,default,block1,olivia,projective,0.13,16892,establish,10,establish,C,NA,default,27,Yes,NA,Female,English,NA,6
2288,default,block1,charley,projective,0.94,6234,know,11,know,C,NA,default,27,Yes,NA,Female,English,NA,7
2288,default,block1,frank,projective,0.91,5086,be_annoyed,12,be_annoyed,C,NA,default,27,Yes,NA,Female,English,NA,8
2288,default,block1,mia,projective,0.06,121294,think,13,think,C,NA,default,27,Yes,NA,Female,English,NA,9
2288,default,block1,pizza,projective,0.06,4910,MC,14,MC,MC,NA,default,27,Yes,NA,Female,English,NA,10
2288,default,block1,jackson,projective,0.68,6850,discover,15,discover,C,NA,default,27,Yes,NA,Female,English,NA,11
2288,default,block1,ballet,projective,0.11,9056,MC,16,MC,MC,NA,default,27,Yes,NA,Female,English,NA,12
2288,default,block1,muffins,projective,0.1,6094,MC,17,MC,MC,NA,default,27,Yes,NA,Female,English,NA,13
2288,default,block1,julian,projective,0.74,6155,announce,18,announce,C,NA,default,27,Yes,NA,Female,English,NA,14
2288,default,block1,hat,projective,0.08,11069,MC,19,MC,MC,NA,default,27,Yes,NA,Female,English,NA,15
2288,default,block1,josh,projective,0.11,7723,say,20,say,C,NA,default,27,Yes,NA,Female,English,NA,16
2288,default,block1,jon,projective,0.93,17476,see,21,see,C,NA,default,27,Yes,NA,Female,English,NA,17
2288,default,block1,mary,projective,0.06,5822,admit,22,admit,C,NA,default,27,Yes,NA,Female,English,NA,18
2288,default,block1,kids,projective,0.07,9898,MC,23,MC,MC,NA,default,27,Yes,NA,Female,English,NA,19
2288,default,block1,josie,projective,0.89,15427,inform,24,inform,C,NA,default,27,Yes,NA,Female,English,NA,20
2288,default,block1,grace,projective,0.05,5453,confirm,25,confirm,C,NA,default,27,Yes,NA,Female,English,NA,21
2288,default,block1,zoe,projective,0.89,11977,confess,26,confess,C,NA,default,27,Yes,NA,Female,English,NA,22
2288,default,block1,garage,projective,0.04,14566,MC,27,MC,MC,NA,default,27,Yes,NA,Female,English,NA,23
2288,default,block1,danny,projective,0.07,7201,pretend,28,pretend,C,NA,default,27,Yes,NA,Female,English,NA,24
2288,default,block1,emily,projective,0.25,18269,acknowledge,29,acknowledge,C,NA,default,27,Yes,NA,Female,English,NA,25
2288,default,block1,sophia,projective,0.04,7505,suggest,30,suggest,C,NA,default,27,Yes,NA,Female,English,NA,26
2288,default,block2,sophia,ai,0.97,5688,suggest,32,suggest,C,NA,default,27,Yes,NA,Female,English,NA,27
2288,default,block2,josh,ai,0.99,5565,say,33,say,C,NA,default,27,Yes,NA,Female,English,NA,28
2288,default,block2,jayden,ai,0.96,3997,hear,34,hear,C,NA,default,27,Yes,NA,Female,English,NA,29
2288,default,block2,tony,ai,0.97,8983,prove,35,prove,C,NA,default,27,Yes,NA,Female,English,NA,30
2288,default,block2,hat,ai,0.73,7062,MC,36,MC,MC,NA,default,27,Yes,NA,Female,English,NA,31
2288,default,block2,isabella,ai,0.95,3924,demonstrate,37,demonstrate,C,NA,default,27,Yes,NA,Female,English,NA,32
2288,default,block2,grace,ai,0.98,5138,confirm,38,confirm,C,NA,default,27,Yes,NA,Female,English,NA,33
2288,default,block2,muffins,ai,0.18999999999999995,12610,MC,39,MC,MC,NA,default,27,Yes,NA,Female,English,NA,34
2288,default,block2,garage,ai,0.18000000000000005,4362,MC,40,MC,MC,NA,default,27,Yes,NA,Female,English,NA,35
2288,default,block2,jon,ai,0.97,4950,see,41,see,C,NA,default,27,Yes,NA,Female,English,NA,36
2288,default,block2,mia,ai,1,10652,think,42,think,C,NA,default,27,Yes,NA,Female,English,NA,37
2288,default,block2,pizza,ai,0.97,8552,MC,43,MC,MC,NA,default,27,Yes,NA,Female,English,NA,38
2288,default,block2,ballet,ai,0.16000000000000003,8144,MC,44,MC,MC,NA,default,27,Yes,NA,Female,English,NA,39
2288,default,block2,josie,ai,0.98,5570,inform,45,inform,C,NA,default,27,Yes,NA,Female,English,NA,40
2288,default,block2,mary,ai,0.99,4742,admit,46,admit,C,NA,default,27,Yes,NA,Female,English,NA,41
2288,default,block2,zoe,ai,1,7652,confess,47,confess,C,NA,default,27,Yes,NA,Female,English,NA,42
2288,default,block2,kids,ai,0.21999999999999997,10286,MC,48,MC,MC,NA,default,27,Yes,NA,Female,English,NA,43
2288,default,block2,frank,ai,0.95,7311,be_annoyed,49,be_annoyed,C,NA,default,27,Yes,NA,Female,English,NA,44
2288,default,block2,emily,ai,0.96,8684,acknowledge,50,acknowledge,C,NA,default,27,Yes,NA,Female,English,NA,45
2288,default,block2,charley,ai,0.99,17431,know,51,know,C,NA,default,27,Yes,NA,Female,English,NA,46
2288,default,block2,danny,ai,0.99,4264,pretend,52,pretend,C,NA,default,27,Yes,NA,Female,English,NA,47
2288,default,block2,jackson,ai,0.98,3367,discover,53,discover,C,NA,default,27,Yes,NA,Female,English,NA,48
2288,default,block2,olivia,ai,0.98,3745,establish,54,establish,C,NA,default,27,Yes,NA,Female,English,NA,49
2288,default,block2,julian,ai,0.98,4355,announce,55,announce,C,NA,default,27,Yes,NA,Female,English,NA,50
2288,default,block2,emma,ai,0.97,2911,reveal,56,reveal,C,NA,default,27,Yes,NA,Female,English,NA,51
2288,default,block2,owen,ai,1,4858,be_right,57,be_right,C,NA,default,27,Yes,NA,Female,English,NA,52
2284,default,block1,garage,projective,0,11858,MC,5,MC,MC,NA,default,35,Yes,NA,Male,english,NA,1
2284,default,block1,emma,projective,0.41,34832,know,6,know,C,NA,default,35,Yes,NA,Male,english,NA,2
2284,default,block1,julian,projective,0.99,16408,be_annoyed,7,be_annoyed,C,NA,default,35,Yes,NA,Male,english,NA,3
2284,default,block1,olivia,projective,0.06,18734,confess,8,confess,C,NA,default,35,Yes,NA,Male,english,NA,4
2284,default,block1,tony,projective,0,11788,demonstrate,9,demonstrate,C,NA,default,35,Yes,NA,Male,english,NA,5
2284,default,block1,kids,projective,0,10562,MC,10,MC,MC,NA,default,35,Yes,NA,Male,english,NA,6
2284,default,block1,frank,projective,0.1,10689,admit,11,admit,C,NA,default,35,Yes,NA,Male,english,NA,7
2284,default,block1,grace,projective,0.07,15228,announce,12,announce,C,NA,default,35,Yes,NA,Male,english,NA,8
2284,default,block1,zoe,projective,0.14,20696,establish,13,establish,C,NA,default,35,Yes,NA,Male,english,NA,9
2284,default,block1,ballet,projective,0,8460,MC,14,MC,MC,NA,default,35,Yes,NA,Male,english,NA,10
2284,default,block1,muffins,projective,0,5145,MC,15,MC,MC,NA,default,35,Yes,NA,Male,english,NA,11
2284,default,block1,isabella,projective,0.15,7430,prove,16,prove,C,NA,default,35,Yes,NA,Male,english,NA,12
2284,default,block1,josie,projective,0.09,7222,reveal,17,reveal,C,NA,default,35,Yes,NA,Male,english,NA,13
2284,default,block1,mia,projective,0,9416,think,18,think,C,NA,default,35,Yes,NA,Male,english,NA,14
2284,default,block1,josh,projective,0.4,20206,hear,19,hear,C,NA,default,35,Yes,NA,Male,english,NA,15
2284,default,block1,sophia,projective,0.18,19682,confirm,20,confirm,C,NA,default,35,Yes,NA,Male,english,NA,16
2284,default,block1,jackson,projective,0.15,5347,say,21,say,C,NA,default,35,Yes,NA,Male,english,NA,17
2284,default,block1,hat,projective,0,16269,MC,22,MC,MC,NA,default,35,Yes,NA,Male,english,NA,18
2284,default,block1,pizza,projective,0,5686,MC,23,MC,MC,NA,default,35,Yes,NA,Male,english,NA,19
2284,default,block1,danny,projective,0.36,10864,acknowledge,24,acknowledge,C,NA,default,35,Yes,NA,Male,english,NA,20
2284,default,block1,jon,projective,0.42,11723,discover,25,discover,C,NA,default,35,Yes,NA,Male,english,NA,21
2284,default,block1,emily,projective,0.61,22600,inform,26,inform,C,NA,default,35,Yes,NA,Male,english,NA,22
2284,default,block1,charley,projective,0,18335,pretend,27,pretend,C,NA,default,35,Yes,NA,Male,english,NA,23
2284,default,block1,mary,projective,0,6772,be_right,28,be_right,C,NA,default,35,Yes,NA,Male,english,NA,24
2284,default,block1,owen,projective,0.56,12570,see,29,see,C,NA,default,35,Yes,NA,Male,english,NA,25
2284,default,block1,jayden,projective,0.07,10113,suggest,30,suggest,C,NA,default,35,Yes,NA,Male,english,NA,26
2284,default,block2,hat,ai,0,19177,MC,32,MC,MC,NA,default,35,Yes,NA,Male,english,NA,27
2284,default,block2,josie,ai,1,13327,reveal,33,reveal,C,NA,default,35,Yes,NA,Male,english,NA,28
2284,default,block2,mary,ai,1,11136,be_right,34,be_right,C,NA,default,35,Yes,NA,Male,english,NA,29
2284,default,block2,josh,ai,1,12633,hear,35,hear,C,NA,default,35,Yes,NA,Male,english,NA,30
2284,default,block2,kids,ai,0.26,16518,MC,36,MC,MC,NA,default,35,Yes,NA,Male,english,NA,31
2284,default,block2,emily,ai,1,5046,inform,37,inform,C,NA,default,35,Yes,NA,Male,english,NA,32
2284,default,block2,julian,ai,1,5768,be_annoyed,38,be_annoyed,C,NA,default,35,Yes,NA,Male,english,NA,33
2284,default,block2,owen,ai,1,7216,see,39,see,C,NA,default,35,Yes,NA,Male,english,NA,34
2284,default,block2,grace,ai,1,7039,announce,40,announce,C,NA,default,35,Yes,NA,Male,english,NA,35
2284,default,block2,ballet,ai,0,22465,MC,41,MC,MC,NA,default,35,Yes,NA,Male,english,NA,36
2284,default,block2,charley,ai,1,5224,pretend,42,pretend,C,NA,default,35,Yes,NA,Male,english,NA,37
2284,default,block2,sophia,ai,1,4816,confirm,43,confirm,C,NA,default,35,Yes,NA,Male,english,NA,38
2284,default,block2,garage,ai,0,9024,MC,44,MC,MC,NA,default,35,Yes,NA,Male,english,NA,39
2284,default,block2,isabella,ai,1,10542,prove,45,prove,C,NA,default,35,Yes,NA,Male,english,NA,40
2284,default,block2,jon,ai,1,5856,discover,46,discover,C,NA,default,35,Yes,NA,Male,english,NA,41
2284,default,block2,mia,ai,1,10858,think,47,think,C,NA,default,35,Yes,NA,Male,english,NA,42
2284,default,block2,olivia,ai,1,6286,confess,48,confess,C,NA,default,35,Yes,NA,Male,english,NA,43
2284,default,block2,muffins,ai,0.20999999999999996,13009,MC,49,MC,MC,NA,default,35,Yes,NA,Male,english,NA,44
2284,default,block2,jackson,ai,1,4862,say,50,say,C,NA,default,35,Yes,NA,Male,english,NA,45
2284,default,block2,jayden,ai,1,3514,suggest,51,suggest,C,NA,default,35,Yes,NA,Male,english,NA,46
2284,default,block2,danny,ai,1,4098,acknowledge,52,acknowledge,C,NA,default,35,Yes,NA,Male,english,NA,47
2284,default,block2,pizza,ai,0.20999999999999996,19426,MC,53,MC,MC,NA,default,35,Yes,NA,Male,english,NA,48
2284,default,block2,tony,ai,1,7034,demonstrate,54,demonstrate,C,NA,default,35,Yes,NA,Male,english,NA,49
2284,default,block2,emma,ai,0.99,6530,know,55,know,C,NA,default,35,Yes,NA,Male,english,NA,50
2284,default,block2,zoe,ai,1,3632,establish,56,establish,C,NA,default,35,Yes,NA,Male,english,NA,51
2284,default,block2,frank,ai,1,3716,admit,57,admit,C,NA,default,35,Yes,NA,Male,english,NA,52
2442,default,block1,frank,ai,0.97,27956,inform,5,inform,C,NA,default,24,Yes,NA,Male,English,NA,1
2442,default,block1,mary,ai,1,6996,reveal,6,reveal,C,NA,default,24,Yes,NA,Male,English,NA,2
2442,default,block1,julian,ai,0.97,5090,be_annoyed,7,be_annoyed,C,NA,default,24,Yes,NA,Male,English,NA,3
2442,default,block1,emma,ai,0.96,7147,say,8,say,C,NA,default,24,Yes,NA,Male,English,NA,4
2442,default,block1,sophia,ai,1,9636,know,9,know,C,NA,default,24,Yes,NA,Male,English,NA,5
2442,default,block1,josie,ai,0.89,7392,discover,10,discover,C,NA,default,24,Yes,NA,Male,English,NA,6
2442,default,block1,muffins,ai,0,9640,MC,11,MC,MC,NA,default,24,Yes,NA,Male,English,NA,7
2442,default,block1,olivia,ai,0.98,5440,admit,12,admit,C,NA,default,24,Yes,NA,Male,English,NA,8
2442,default,block1,isabella,ai,0.97,4423,suggest,13,suggest,C,NA,default,24,Yes,NA,Male,English,NA,9
2442,default,block1,garage,ai,0.050000000000000044,6162,MC,14,MC,MC,NA,default,24,Yes,NA,Male,English,NA,10
2442,default,block1,jackson,ai,0.94,4717,demonstrate,15,demonstrate,C,NA,default,24,Yes,NA,Male,English,NA,11
2442,default,block1,emily,ai,0.96,3791,establish,16,establish,C,NA,default,24,Yes,NA,Male,English,NA,12
2442,default,block1,zoe,ai,0.97,4569,confirm,17,confirm,C,NA,default,24,Yes,NA,Male,English,NA,13
2442,default,block1,danny,ai,0.96,4001,be_right,18,be_right,C,NA,default,24,Yes,NA,Male,English,NA,14
2442,default,block1,mia,ai,0.95,6453,prove,19,prove,C,NA,default,24,Yes,NA,Male,English,NA,15
2442,default,block1,owen,ai,0.97,5688,hear,20,hear,C,NA,default,24,Yes,NA,Male,English,NA,16
2442,default,block1,hat,ai,0.06000000000000005,4918,MC,21,MC,MC,NA,default,24,Yes,NA,Male,English,NA,17
2442,default,block1,pizza,ai,0.22999999999999998,7358,MC,22,MC,MC,NA,default,24,Yes,NA,Male,English,NA,18
2442,default,block1,josh,ai,1,4605,confess,23,confess,C,NA,default,24,Yes,NA,Male,English,NA,19
2442,default,block1,jon,ai,0.98,4159,pretend,24,pretend,C,NA,default,24,Yes,NA,Male,English,NA,20
2442,default,block1,tony,ai,0.99,4149,announce,25,announce,C,NA,default,24,Yes,NA,Male,English,NA,21
2442,default,block1,grace,ai,0.96,10438,think,26,think,C,NA,default,24,Yes,NA,Male,English,NA,22
2442,default,block1,charley,ai,0.95,5208,acknowledge,27,acknowledge,C,NA,default,24,Yes,NA,Male,English,NA,23
2442,default,block1,jayden,ai,0.97,4630,see,28,see,C,NA,default,24,Yes,NA,Male,English,NA,24
2442,default,block1,kids,ai,0.19999999999999996,6480,MC,29,MC,MC,NA,default,24,Yes,NA,Male,English,NA,25
2442,default,block1,ballet,ai,0.5,5112,MC,30,MC,MC,NA,default,24,Yes,NA,Male,English,NA,26
2442,default,block2,charley,projective,0.67,8283,acknowledge,32,acknowledge,C,NA,default,24,Yes,NA,Male,English,NA,27
2442,default,block2,danny,projective,0.02,4306,be_right,33,be_right,C,NA,default,24,Yes,NA,Male,English,NA,28
2442,default,block2,emma,projective,0.27,4773,say,34,say,C,NA,default,24,Yes,NA,Male,English,NA,29
2442,default,block2,josh,projective,0.38,5148,confess,35,confess,C,NA,default,24,Yes,NA,Male,English,NA,30
2442,default,block2,jon,projective,0.03,4372,pretend,36,pretend,C,NA,default,24,Yes,NA,Male,English,NA,31
2442,default,block2,frank,projective,1,4404,inform,37,inform,C,NA,default,24,Yes,NA,Male,English,NA,32
2442,default,block2,josie,projective,0.95,5336,discover,38,discover,C,NA,default,24,Yes,NA,Male,English,NA,33
2442,default,block2,garage,projective,0.1,5042,MC,39,MC,MC,NA,default,24,Yes,NA,Male,English,NA,34
2442,default,block2,pizza,projective,0.28,12031,MC,40,MC,MC,NA,default,24,Yes,NA,Male,English,NA,35
2442,default,block2,zoe,projective,0.07,9096,confirm,41,confirm,C,NA,default,24,Yes,NA,Male,English,NA,36
2442,default,block2,olivia,projective,0.14,7771,admit,42,admit,C,NA,default,24,Yes,NA,Male,English,NA,37
2442,default,block2,muffins,projective,0.01,4195,MC,43,MC,MC,NA,default,24,Yes,NA,Male,English,NA,38
2442,default,block2,hat,projective,0.14,6134,MC,44,MC,MC,NA,default,24,Yes,NA,Male,English,NA,39
2442,default,block2,sophia,projective,1,5244,know,45,know,C,NA,default,24,Yes,NA,Male,English,NA,40
2442,default,block2,emily,projective,0.35,4055,establish,46,establish,C,NA,default,24,Yes,NA,Male,English,NA,41
2442,default,block2,grace,projective,0.38,4574,think,47,think,C,NA,default,24,Yes,NA,Male,English,NA,42
2442,default,block2,julian,projective,1,5650,be_annoyed,48,be_annoyed,C,NA,default,24,Yes,NA,Male,English,NA,43
2442,default,block2,mia,projective,0.28,4503,prove,49,prove,C,NA,default,24,Yes,NA,Male,English,NA,44
2442,default,block2,tony,projective,0.83,5352,announce,50,announce,C,NA,default,24,Yes,NA,Male,English,NA,45
2442,default,block2,isabella,projective,0.23,4465,suggest,51,suggest,C,NA,default,24,Yes,NA,Male,English,NA,46
2442,default,block2,mary,projective,0.93,5242,reveal,52,reveal,C,NA,default,24,Yes,NA,Male,English,NA,47
2442,default,block2,ballet,projective,0.22,9833,MC,53,MC,MC,NA,default,24,Yes,NA,Male,English,NA,48
2442,default,block2,jayden,projective,0.94,3576,see,54,see,C,NA,default,24,Yes,NA,Male,English,NA,49
2442,default,block2,owen,projective,1,5352,hear,55,hear,C,NA,default,24,Yes,NA,Male,English,NA,50
2442,default,block2,kids,projective,0.11,5374,MC,56,MC,MC,NA,default,24,Yes,NA,Male,English,NA,51
2442,default,block2,jackson,projective,0.09,4449,demonstrate,57,demonstrate,C,NA,default,24,Yes,NA,Male,English,NA,52
2521,default,block1,josh,ai,0.78,47357,reveal,5,reveal,C,NA,default,25,Yes,"Almost every answer for the 1st section was no, for me personally.  I'm curious if that was intended.",Male,English,NA,1
2521,default,block1,jackson,ai,1,9702,say,6,say,C,NA,default,25,Yes,"Almost every answer for the 1st section was no, for me personally.  I'm curious if that was intended.",Male,English,NA,2
2521,default,block1,danny,ai,0.71,11659,suggest,7,suggest,C,NA,default,25,Yes,"Almost every answer for the 1st section was no, for me personally.  I'm curious if that was intended.",Male,English,NA,3
2521,default,block1,jayden,ai,1,16369,inform,8,inform,C,NA,default,25,Yes,"Almost every answer for the 1st section was no, for me personally.  I'm curious if that was intended.",Male,English,NA,4
2521,default,block1,jon,ai,1,7462,acknowledge,9,acknowledge,C,NA,default,25,Yes,"Almost every answer for the 1st section was no, for me personally.  I'm curious if that was intended.",Male,English,NA,5
2521,default,block1,olivia,ai,1,8158,establish,10,establish,C,NA,default,25,Yes,"Almost every answer for the 1st section was no, for me personally.  I'm curious if that was intended.",Male,English,NA,6
2521,default,block1,zoe,ai,1,7518,announce,11,announce,C,NA,default,25,Yes,"Almost every answer for the 1st section was no, for me personally.  I'm curious if that was intended.",Male,English,NA,7
2521,default,block1,mia,ai,0.77,8598,admit,12,admit,C,NA,default,25,Yes,"Almost every answer for the 1st section was no, for me personally.  I'm curious if that was intended.",Male,English,NA,8
2521,default,block1,owen,ai,1,8016,prove,13,prove,C,NA,default,25,Yes,"Almost every answer for the 1st section was no, for me personally.  I'm curious if that was intended.",Male,English,NA,9
2521,default,block1,frank,ai,1,10326,discover,14,discover,C,NA,default,25,Yes,"Almost every answer for the 1st section was no, for me personally.  I'm curious if that was intended.",Male,English,NA,10
2521,default,block1,julian,ai,0.78,12074,demonstrate,15,demonstrate,C,NA,default,25,Yes,"Almost every answer for the 1st section was no, for me personally.  I'm curious if that was intended.",Male,English,NA,11
2521,default,block1,kids,ai,0.29000000000000004,11648,MC,16,MC,MC,NA,default,25,Yes,"Almost every answer for the 1st section was no, for me personally.  I'm curious if that was intended.",Male,English,NA,12
2521,default,block1,grace,ai,1,4935,be_annoyed,17,be_annoyed,C,NA,default,25,Yes,"Almost every answer for the 1st section was no, for me personally.  I'm curious if that was intended.",Male,English,NA,13
2521,default,block1,sophia,ai,0.13,9066,think,18,think,C,NA,default,25,Yes,"Almost every answer for the 1st section was no, for me personally.  I'm curious if that was intended.",Male,English,NA,14
2521,default,block1,emma,ai,0.97,4913,confirm,19,confirm,C,NA,default,25,Yes,"Almost every answer for the 1st section was no, for me personally.  I'm curious if that was intended.",Male,English,NA,15
2521,default,block1,emily,ai,0.69,11169,see,20,see,C,NA,default,25,Yes,"Almost every answer for the 1st section was no, for me personally.  I'm curious if that was intended.",Male,English,NA,16
2521,default,block1,pizza,ai,0.18999999999999995,9668,MC,21,MC,MC,NA,default,25,Yes,"Almost every answer for the 1st section was no, for me personally.  I'm curious if that was intended.",Male,English,NA,17
2521,default,block1,garage,ai,0.14,10972,MC,22,MC,MC,NA,default,25,Yes,"Almost every answer for the 1st section was no, for me personally.  I'm curious if that was intended.",Male,English,NA,18
2521,default,block1,charley,ai,0.76,7951,hear,23,hear,C,NA,default,25,Yes,"Almost every answer for the 1st section was no, for me personally.  I'm curious if that was intended.",Male,English,NA,19
2521,default,block1,josie,ai,0.8200000000000001,8592,confess,24,confess,C,NA,default,25,Yes,"Almost every answer for the 1st section was no, for me personally.  I'm curious if that was intended.",Male,English,NA,20
2521,default,block1,isabella,ai,1,11876,know,25,know,C,NA,default,25,Yes,"Almost every answer for the 1st section was no, for me personally.  I'm curious if that was intended.",Male,English,NA,21
2521,default,block1,ballet,ai,0.35,5183,MC,26,MC,MC,NA,default,25,Yes,"Almost every answer for the 1st section was no, for me personally.  I'm curious if that was intended.",Male,English,NA,22
2521,default,block1,muffins,ai,0.55,7108,MC,27,MC,MC,NA,default,25,Yes,"Almost every answer for the 1st section was no, for me personally.  I'm curious if that was intended.",Male,English,NA,23
2521,default,block1,tony,ai,1,5054,pretend,28,pretend,C,NA,default,25,Yes,"Almost every answer for the 1st section was no, for me personally.  I'm curious if that was intended.",Male,English,NA,24
2521,default,block1,hat,ai,0.29000000000000004,5715,MC,29,MC,MC,NA,default,25,Yes,"Almost every answer for the 1st section was no, for me personally.  I'm curious if that was intended.",Male,English,NA,25
2521,default,block1,mary,ai,0.19999999999999996,8899,be_right,30,be_right,C,NA,default,25,Yes,"Almost every answer for the 1st section was no, for me personally.  I'm curious if that was intended.",Male,English,NA,26
2521,default,block2,garage,projective,0.68,13906,MC,32,MC,MC,NA,default,25,Yes,"Almost every answer for the 1st section was no, for me personally.  I'm curious if that was intended.",Male,English,NA,27
2521,default,block2,mia,projective,0.18,5682,admit,33,admit,C,NA,default,25,Yes,"Almost every answer for the 1st section was no, for me personally.  I'm curious if that was intended.",Male,English,NA,28
2521,default,block2,tony,projective,0.18,9040,pretend,34,pretend,C,NA,default,25,Yes,"Almost every answer for the 1st section was no, for me personally.  I'm curious if that was intended.",Male,English,NA,29
2521,default,block2,zoe,projective,0,7119,announce,35,announce,C,NA,default,25,Yes,"Almost every answer for the 1st section was no, for me personally.  I'm curious if that was intended.",Male,English,NA,30
2521,default,block2,charley,projective,0.92,5679,hear,36,hear,C,NA,default,25,Yes,"Almost every answer for the 1st section was no, for me personally.  I'm curious if that was intended.",Male,English,NA,31
2521,default,block2,josh,projective,0.87,9163,reveal,37,reveal,C,NA,default,25,Yes,"Almost every answer for the 1st section was no, for me personally.  I'm curious if that was intended.",Male,English,NA,32
2521,default,block2,josie,projective,0.49,6498,confess,38,confess,C,NA,default,25,Yes,"Almost every answer for the 1st section was no, for me personally.  I'm curious if that was intended.",Male,English,NA,33
2521,default,block2,emily,projective,1,7161,see,39,see,C,NA,default,25,Yes,"Almost every answer for the 1st section was no, for me personally.  I'm curious if that was intended.",Male,English,NA,34
2521,default,block2,sophia,projective,0.26,9615,think,40,think,C,NA,default,25,Yes,"Almost every answer for the 1st section was no, for me personally.  I'm curious if that was intended.",Male,English,NA,35
2521,default,block2,frank,projective,0.96,15676,discover,41,discover,C,NA,default,25,Yes,"Almost every answer for the 1st section was no, for me personally.  I'm curious if that was intended.",Male,English,NA,36
2521,default,block2,ballet,projective,0,7133,MC,42,MC,MC,NA,default,25,Yes,"Almost every answer for the 1st section was no, for me personally.  I'm curious if that was intended.",Male,English,NA,37
2521,default,block2,danny,projective,0.02,6294,suggest,43,suggest,C,NA,default,25,Yes,"Almost every answer for the 1st section was no, for me personally.  I'm curious if that was intended.",Male,English,NA,38
