workerid,proliferate.condition.x,block,content,question_type,response,rt,short_trigger,slide_number_in_experiment,trigger,trigger_class,error.x,proliferate.condition.y,age,american,comments,gender,language,error.y,trial
3228,default,block1,jackson,ai,0.79,11124,acknowledge,5,acknowledge,C,NA,default,25,Yes,NA,Female,English,NA,1
3228,default,block1,owen,ai,0.43999999999999995,13321,be_right,6,be_right,C,NA,default,25,Yes,NA,Female,English,NA,2
3228,default,block1,frank,ai,0.76,7149,hear,7,hear,C,NA,default,25,Yes,NA,Female,English,NA,3
3228,default,block1,josie,ai,1,9088,suggest,8,suggest,C,NA,default,25,Yes,NA,Female,English,NA,4
3228,default,block1,ballet,ai,0.030000000000000027,6550,MC,9,MC,MC,NA,default,25,Yes,NA,Female,English,NA,5
3228,default,block1,josh,ai,0.9,7961,inform,10,inform,C,NA,default,25,Yes,NA,Female,English,NA,6
3228,default,block1,emily,ai,0.9299999999999999,7232,reveal,11,reveal,C,NA,default,25,Yes,NA,Female,English,NA,7
3228,default,block1,jon,ai,0.89,5789,announce,12,announce,C,NA,default,25,Yes,NA,Female,English,NA,8
3228,default,block1,hat,ai,0.12,7653,MC,13,MC,MC,NA,default,25,Yes,NA,Female,English,NA,9
3228,default,block1,jayden,ai,0.85,5294,think,14,think,C,NA,default,25,Yes,NA,Female,English,NA,10
3228,default,block1,mia,ai,0.91,8505,confirm,15,confirm,C,NA,default,25,Yes,NA,Female,English,NA,11
3228,default,block1,isabella,ai,0.9,5403,say,16,say,C,NA,default,25,Yes,NA,Female,English,NA,12
3228,default,block1,muffins,ai,0.06000000000000005,8607,MC,17,MC,MC,NA,default,25,Yes,NA,Female,English,NA,13
3228,default,block1,zoe,ai,0.91,6339,confess,18,confess,C,NA,default,25,Yes,NA,Female,English,NA,14
3228,default,block1,tony,ai,0.9,7522,prove,19,prove,C,NA,default,25,Yes,NA,Female,English,NA,15
3228,default,block1,olivia,ai,0.9,8768,see,20,see,C,NA,default,25,Yes,NA,Female,English,NA,16
3228,default,block1,garage,ai,0.27,5616,MC,21,MC,MC,NA,default,25,Yes,NA,Female,English,NA,17
3228,default,block1,kids,ai,0.10999999999999999,4562,MC,22,MC,MC,NA,default,25,Yes,NA,Female,English,NA,18
3228,default,block1,charley,ai,0.88,7684,discover,23,discover,C,NA,default,25,Yes,NA,Female,English,NA,19
3228,default,block1,julian,ai,0.84,5114,pretend,24,pretend,C,NA,default,25,Yes,NA,Female,English,NA,20
3228,default,block1,grace,ai,0.98,7506,establish,25,establish,C,NA,default,25,Yes,NA,Female,English,NA,21
3228,default,block1,sophia,ai,0.86,5996,know,26,know,C,NA,default,25,Yes,NA,Female,English,NA,22
3228,default,block1,danny,ai,0.97,4123,demonstrate,27,demonstrate,C,NA,default,25,Yes,NA,Female,English,NA,23
3228,default,block1,emma,ai,0.97,7230,admit,28,admit,C,NA,default,25,Yes,NA,Female,English,NA,24
3228,default,block1,pizza,ai,0.14,14113,MC,29,MC,MC,NA,default,25,Yes,NA,Female,English,NA,25
3228,default,block1,mary,ai,0.91,5853,be_annoyed,30,be_annoyed,C,NA,default,25,Yes,NA,Female,English,NA,26
3228,default,block2,jackson,projective,0.19,7074,acknowledge,32,acknowledge,C,NA,default,25,Yes,NA,Female,English,NA,27
3228,default,block2,julian,projective,0.01,5356,pretend,33,pretend,C,NA,default,25,Yes,NA,Female,English,NA,28
3228,default,block2,tony,projective,0.32,6603,prove,34,prove,C,NA,default,25,Yes,NA,Female,English,NA,29
3228,default,block2,owen,projective,0.22,4536,be_right,35,be_right,C,NA,default,25,Yes,NA,Female,English,NA,30
3228,default,block2,sophia,projective,0.8,3298,know,36,know,C,NA,default,25,Yes,NA,Female,English,NA,31
3228,default,block2,josh,projective,0.79,6688,inform,37,inform,C,NA,default,25,Yes,NA,Female,English,NA,32
3228,default,block2,hat,projective,0.73,3120,MC,38,MC,MC,NA,default,25,Yes,NA,Female,English,NA,33
3228,default,block2,frank,projective,0.86,4495,hear,39,hear,C,NA,default,25,Yes,NA,Female,English,NA,34
3228,default,block2,olivia,projective,0.77,4327,see,40,see,C,NA,default,25,Yes,NA,Female,English,NA,35
3228,default,block2,emma,projective,0.79,4700,admit,41,admit,C,NA,default,25,Yes,NA,Female,English,NA,36
3228,default,block2,emily,projective,0.75,4197,reveal,42,reveal,C,NA,default,25,Yes,NA,Female,English,NA,37
3228,default,block2,kids,projective,0.75,3978,MC,43,MC,MC,NA,default,25,Yes,NA,Female,English,NA,38
3228,default,block2,mia,projective,0.18,3988,confirm,44,confirm,C,NA,default,25,Yes,NA,Female,English,NA,39
3228,default,block2,isabella,projective,0.14,4885,say,45,say,C,NA,default,25,Yes,NA,Female,English,NA,40
3228,default,block2,mary,projective,0.85,5007,be_annoyed,46,be_annoyed,C,NA,default,25,Yes,NA,Female,English,NA,41
3228,default,block2,josie,projective,0.03,4232,suggest,47,suggest,C,NA,default,25,Yes,NA,Female,English,NA,42
3228,default,block2,danny,projective,0.18,3613,demonstrate,48,demonstrate,C,NA,default,25,Yes,NA,Female,English,NA,43
3228,default,block2,garage,projective,0.85,3987,MC,49,MC,MC,NA,default,25,Yes,NA,Female,English,NA,44
3228,default,block2,zoe,projective,0.78,5178,confess,50,confess,C,NA,default,25,Yes,NA,Female,English,NA,45
3228,default,block2,jayden,projective,0.02,4804,think,51,think,C,NA,default,25,Yes,NA,Female,English,NA,46
3228,default,block2,jon,projective,0.79,4021,announce,52,announce,C,NA,default,25,Yes,NA,Female,English,NA,47
3228,default,block2,muffins,projective,0.98,4713,MC,53,MC,MC,NA,default,25,Yes,NA,Female,English,NA,48
3228,default,block2,pizza,projective,0.97,3412,MC,54,MC,MC,NA,default,25,Yes,NA,Female,English,NA,49
3228,default,block2,grace,projective,0.69,5756,establish,55,establish,C,NA,default,25,Yes,NA,Female,English,NA,50
3228,default,block2,ballet,projective,0.96,4658,MC,56,MC,MC,NA,default,25,Yes,NA,Female,English,NA,51
3228,default,block2,charley,projective,0.93,3913,discover,57,discover,C,NA,default,25,Yes,NA,Female,English,NA,52
3087,default,block1,josie,ai,0.85,17059,confess,5,confess,C,NA,default,33,Yes,NA,Female,English,NA,1
3087,default,block1,josh,ai,0.95,11592,be_annoyed,6,be_annoyed,C,NA,default,33,Yes,NA,Female,English,NA,2
3087,default,block1,isabella,ai,0.010000000000000009,12057,demonstrate,7,demonstrate,C,NA,default,33,Yes,NA,Female,English,NA,3
3087,default,block1,emily,ai,0.040000000000000036,8034,pretend,8,pretend,C,NA,default,33,Yes,NA,Female,English,NA,4
3087,default,block1,zoe,ai,0.06000000000000005,17288,establish,9,establish,C,NA,default,33,Yes,NA,Female,English,NA,5
3087,default,block1,mia,ai,0.26,15858,announce,10,announce,C,NA,default,33,Yes,NA,Female,English,NA,6
3087,default,block1,tony,ai,0.06000000000000005,8266,confirm,11,confirm,C,NA,default,33,Yes,NA,Female,English,NA,7
3087,default,block1,sophia,ai,0.99,12923,prove,12,prove,C,NA,default,33,Yes,NA,Female,English,NA,8
3087,default,block1,olivia,ai,0.99,10688,acknowledge,13,acknowledge,C,NA,default,33,Yes,NA,Female,English,NA,9
3087,default,block1,frank,ai,1,11075,inform,14,inform,C,NA,default,33,Yes,NA,Female,English,NA,10
3087,default,block1,mary,ai,0.99,7624,admit,15,admit,C,NA,default,33,Yes,NA,Female,English,NA,11
3087,default,block1,jackson,ai,1,8409,suggest,16,suggest,C,NA,default,33,Yes,NA,Female,English,NA,12
3087,default,block1,owen,ai,0.010000000000000009,11185,reveal,17,reveal,C,NA,default,33,Yes,NA,Female,English,NA,13
3087,default,block1,jon,ai,1,33166,hear,18,hear,C,NA,default,33,Yes,NA,Female,English,NA,14
3087,default,block1,julian,ai,0.96,4018,think,19,think,C,NA,default,33,Yes,NA,Female,English,NA,15
3087,default,block1,jayden,ai,0.47,41566,say,20,say,C,NA,default,33,Yes,NA,Female,English,NA,16
3087,default,block1,danny,ai,0.050000000000000044,11226,know,21,know,C,NA,default,33,Yes,NA,Female,English,NA,17
3087,default,block1,ballet,ai,0.020000000000000018,5040,MC,22,MC,MC,NA,default,33,Yes,NA,Female,English,NA,18
3087,default,block1,hat,ai,0.010000000000000009,10963,MC,23,MC,MC,NA,default,33,Yes,NA,Female,English,NA,19
3087,default,block1,charley,ai,0.99,7857,be_right,24,be_right,C,NA,default,33,Yes,NA,Female,English,NA,20
3087,default,block1,garage,ai,0.040000000000000036,5216,MC,25,MC,MC,NA,default,33,Yes,NA,Female,English,NA,21
3087,default,block1,emma,ai,0.030000000000000027,6600,see,26,see,C,NA,default,33,Yes,NA,Female,English,NA,22
3087,default,block1,muffins,ai,0.010000000000000009,1880,MC,27,MC,MC,NA,default,33,Yes,NA,Female,English,NA,23
3087,default,block1,pizza,ai,0.030000000000000027,1665,MC,28,MC,MC,NA,default,33,Yes,NA,Female,English,NA,24
3087,default,block1,kids,ai,0.030000000000000027,2024,MC,29,MC,MC,NA,default,33,Yes,NA,Female,English,NA,25
3087,default,block1,grace,ai,0.010000000000000009,4488,discover,30,discover,C,NA,default,33,Yes,NA,Female,English,NA,26
3087,default,block2,danny,projective,0.97,15559,know,32,know,C,NA,default,33,Yes,NA,Female,English,NA,27
3087,default,block2,jon,projective,0.98,9930,hear,33,hear,C,NA,default,33,Yes,NA,Female,English,NA,28
3087,default,block2,olivia,projective,0.99,12568,acknowledge,34,acknowledge,C,NA,default,33,Yes,NA,Female,English,NA,29
3087,default,block2,garage,projective,0.97,6209,MC,35,MC,MC,NA,default,33,Yes,NA,Female,English,NA,30
3087,default,block2,ballet,projective,0.97,7715,MC,36,MC,MC,NA,default,33,Yes,NA,Female,English,NA,31
3087,default,block2,josie,projective,0.99,5872,confess,37,confess,C,NA,default,33,Yes,NA,Female,English,NA,32
3087,default,block2,owen,projective,0.98,11730,reveal,38,reveal,C,NA,default,33,Yes,NA,Female,English,NA,33
3087,default,block2,sophia,projective,0.01,17683,prove,39,prove,C,NA,default,33,Yes,NA,Female,English,NA,34
3087,default,block2,frank,projective,0.95,7833,inform,40,inform,C,NA,default,33,Yes,NA,Female,English,NA,35
3087,default,block2,emma,projective,0.95,11033,see,41,see,C,NA,default,33,Yes,NA,Female,English,NA,36
3087,default,block2,pizza,projective,0.98,7474,MC,42,MC,MC,NA,default,33,Yes,NA,Female,English,NA,37
3087,default,block2,mia,projective,0.98,11796,announce,43,announce,C,NA,default,33,Yes,NA,Female,English,NA,38
3087,default,block2,muffins,projective,0.97,5975,MC,44,MC,MC,NA,default,33,Yes,NA,Female,English,NA,39
3087,default,block2,charley,projective,0.02,8840,be_right,45,be_right,C,NA,default,33,Yes,NA,Female,English,NA,40
3087,default,block2,kids,projective,0.97,7713,MC,46,MC,MC,NA,default,33,Yes,NA,Female,English,NA,41
3087,default,block2,isabella,projective,0.96,4921,demonstrate,47,demonstrate,C,NA,default,33,Yes,NA,Female,English,NA,42
3087,default,block2,julian,projective,0.02,6562,think,48,think,C,NA,default,33,Yes,NA,Female,English,NA,43
3087,default,block2,grace,projective,0.97,5550,discover,49,discover,C,NA,default,33,Yes,NA,Female,English,NA,44
3087,default,block2,emily,projective,0.99,31797,pretend,50,pretend,C,NA,default,33,Yes,NA,Female,English,NA,45
3087,default,block2,mary,projective,0.97,4823,admit,51,admit,C,NA,default,33,Yes,NA,Female,English,NA,46
3087,default,block2,jackson,projective,0.05,3969,suggest,52,suggest,C,NA,default,33,Yes,NA,Female,English,NA,47
3087,default,block2,jayden,projective,0.5,13428,say,53,say,C,NA,default,33,Yes,NA,Female,English,NA,48
3087,default,block2,zoe,projective,0.03,5327,establish,54,establish,C,NA,default,33,Yes,NA,Female,English,NA,49
3087,default,block2,tony,projective,0.01,4257,confirm,55,confirm,C,NA,default,33,Yes,NA,Female,English,NA,50
3087,default,block2,hat,projective,0.97,3440,MC,56,MC,MC,NA,default,33,Yes,NA,Female,English,NA,51
3087,default,block2,josh,projective,0.02,2737,be_annoyed,57,be_annoyed,C,NA,default,33,Yes,NA,Female,English,NA,52
3263,default,block1,owen,ai,0.84,20253,announce,5,announce,C,NA,default,28,Yes,NA,Female,English,NA,1
3263,default,block1,hat,ai,0.06000000000000005,8208,MC,6,MC,MC,NA,default,28,Yes,NA,Female,English,NA,2
3263,default,block1,mia,ai,0.8200000000000001,15480,pretend,7,pretend,C,NA,default,28,Yes,NA,Female,English,NA,3
3263,default,block1,charley,ai,0.88,9418,prove,8,prove,C,NA,default,28,Yes,NA,Female,English,NA,4
3263,default,block1,frank,ai,0.88,6229,confess,9,confess,C,NA,default,28,Yes,NA,Female,English,NA,5
3263,default,block1,mary,ai,0.87,5450,confirm,10,confirm,C,NA,default,28,Yes,NA,Female,English,NA,6
3263,default,block1,jon,ai,0.91,6086,say,11,say,C,NA,default,28,Yes,NA,Female,English,NA,7
3263,default,block1,isabella,ai,0.7,12571,establish,12,establish,C,NA,default,28,Yes,NA,Female,English,NA,8
3263,default,block1,josh,ai,0.83,7892,reveal,13,reveal,C,NA,default,28,Yes,NA,Female,English,NA,9
3263,default,block1,sophia,ai,0.85,7262,discover,14,discover,C,NA,default,28,Yes,NA,Female,English,NA,10
3263,default,block1,danny,ai,0.35,8436,be_right,15,be_right,C,NA,default,28,Yes,NA,Female,English,NA,11
3263,default,block1,ballet,ai,0.15000000000000002,8814,MC,16,MC,MC,NA,default,28,Yes,NA,Female,English,NA,12
3263,default,block1,olivia,ai,0.91,7561,see,17,see,C,NA,default,28,Yes,NA,Female,English,NA,13
3263,default,block1,jackson,ai,1,6097,be_annoyed,18,be_annoyed,C,NA,default,28,Yes,NA,Female,English,NA,14
3263,default,block1,emily,ai,0.9299999999999999,5964,know,19,know,C,NA,default,28,Yes,NA,Female,English,NA,15
3263,default,block1,grace,ai,0.95,8665,demonstrate,20,demonstrate,C,NA,default,28,Yes,NA,Female,English,NA,16
3263,default,block1,tony,ai,0.89,8962,admit,21,admit,C,NA,default,28,Yes,NA,Female,English,NA,17
3263,default,block1,jayden,ai,0.91,11079,inform,22,inform,C,NA,default,28,Yes,NA,Female,English,NA,18
3263,default,block1,julian,ai,0.79,8555,hear,23,hear,C,NA,default,28,Yes,NA,Female,English,NA,19
3263,default,block1,kids,ai,0.16000000000000003,7740,MC,24,MC,MC,NA,default,28,Yes,NA,Female,English,NA,20
3263,default,block1,josie,ai,0.85,15022,think,25,think,C,NA,default,28,Yes,NA,Female,English,NA,21
3263,default,block1,emma,ai,0.72,11522,suggest,26,suggest,C,NA,default,28,Yes,NA,Female,English,NA,22
3263,default,block1,garage,ai,0.040000000000000036,6686,MC,27,MC,MC,NA,default,28,Yes,NA,Female,English,NA,23
3263,default,block1,pizza,ai,0.16000000000000003,10294,MC,28,MC,MC,NA,default,28,Yes,NA,Female,English,NA,24
3263,default,block1,muffins,ai,0.08999999999999997,6496,MC,29,MC,MC,NA,default,28,Yes,NA,Female,English,NA,25
3263,default,block1,zoe,ai,0.78,6355,acknowledge,30,acknowledge,C,NA,default,28,Yes,NA,Female,English,NA,26
3263,default,block2,owen,projective,0.99,11897,announce,32,announce,C,NA,default,28,Yes,NA,Female,English,NA,27
3263,default,block2,isabella,projective,0.4,11095,establish,33,establish,C,NA,default,28,Yes,NA,Female,English,NA,28
3263,default,block2,ballet,projective,1,3581,MC,34,MC,MC,NA,default,28,Yes,NA,Female,English,NA,29
3263,default,block2,danny,projective,0.3,9198,be_right,35,be_right,C,NA,default,28,Yes,NA,Female,English,NA,30
3263,default,block2,jackson,projective,0.99,6007,be_annoyed,36,be_annoyed,C,NA,default,28,Yes,NA,Female,English,NA,31
3263,default,block2,zoe,projective,1,6511,acknowledge,37,acknowledge,C,NA,default,28,Yes,NA,Female,English,NA,32
3263,default,block2,jon,projective,0.47,9969,say,38,say,C,NA,default,28,Yes,NA,Female,English,NA,33
3263,default,block2,josie,projective,0.36,10818,think,39,think,C,NA,default,28,Yes,NA,Female,English,NA,34
3263,default,block2,mary,projective,0.35,5931,confirm,40,confirm,C,NA,default,28,Yes,NA,Female,English,NA,35
3263,default,block2,pizza,projective,0.99,4715,MC,41,MC,MC,NA,default,28,Yes,NA,Female,English,NA,36
3263,default,block2,tony,projective,0.81,7716,admit,42,admit,C,NA,default,28,Yes,NA,Female,English,NA,37
3263,default,block2,sophia,projective,0.9,7465,discover,43,discover,C,NA,default,28,Yes,NA,Female,English,NA,38
3263,default,block2,kids,projective,0.99,5315,MC,44,MC,MC,NA,default,28,Yes,NA,Female,English,NA,39
3263,default,block2,emily,projective,0.99,6606,know,45,know,C,NA,default,28,Yes,NA,Female,English,NA,40
3263,default,block2,frank,projective,1,7745,confess,46,confess,C,NA,default,28,Yes,NA,Female,English,NA,41
3263,default,block2,emma,projective,0.11,5515,suggest,47,suggest,C,NA,default,28,Yes,NA,Female,English,NA,42
3263,default,block2,josh,projective,0.97,5187,reveal,48,reveal,C,NA,default,28,Yes,NA,Female,English,NA,43
3263,default,block2,grace,projective,0.49,7009,demonstrate,49,demonstrate,C,NA,default,28,Yes,NA,Female,English,NA,44
3263,default,block2,muffins,projective,0.99,4424,MC,50,MC,MC,NA,default,28,Yes,NA,Female,English,NA,45
3263,default,block2,julian,projective,0.99,8101,hear,51,hear,C,NA,default,28,Yes,NA,Female,English,NA,46
3263,default,block2,charley,projective,0.5,5926,prove,52,prove,C,NA,default,28,Yes,NA,Female,English,NA,47
3263,default,block2,olivia,projective,0.77,5929,see,53,see,C,NA,default,28,Yes,NA,Female,English,NA,48
3263,default,block2,garage,projective,1,4275,MC,54,MC,MC,NA,default,28,Yes,NA,Female,English,NA,49
3263,default,block2,hat,projective,0.98,3944,MC,55,MC,MC,NA,default,28,Yes,NA,Female,English,NA,50
3263,default,block2,jayden,projective,0.99,6056,inform,56,inform,C,NA,default,28,Yes,NA,Female,English,NA,51
3263,default,block2,mia,projective,0.14,5578,pretend,57,pretend,C,NA,default,28,Yes,NA,Female,English,NA,52
3286,default,block1,josh,projective,0.02,21882,be_annoyed,5,be_annoyed,C,NA,default,22,Yes,NA,Female,English,NA,1
3286,default,block1,hat,projective,0.99,13382,MC,6,MC,MC,NA,default,22,Yes,NA,Female,English,NA,2
3286,default,block1,frank,projective,0.24,17005,see,7,see,C,NA,default,22,Yes,NA,Female,English,NA,3
3286,default,block1,emma,projective,0.33,16502,acknowledge,8,acknowledge,C,NA,default,22,Yes,NA,Female,English,NA,4
3286,default,block1,mia,projective,0,10950,confirm,9,confirm,C,NA,default,22,Yes,NA,Female,English,NA,5
3286,default,block1,julian,projective,0.06,11374,say,10,say,C,NA,default,22,Yes,NA,Female,English,NA,6
3286,default,block1,isabella,projective,0.04,14238,pretend,11,pretend,C,NA,default,22,Yes,NA,Female,English,NA,7
3286,default,block1,garage,projective,0.98,6934,MC,12,MC,MC,NA,default,22,Yes,NA,Female,English,NA,8
3286,default,block1,jackson,projective,0.11,10391,inform,13,inform,C,NA,default,22,Yes,NA,Female,English,NA,9
3286,default,block1,zoe,projective,0.2,6720,hear,14,hear,C,NA,default,22,Yes,NA,Female,English,NA,10
3286,default,block1,charley,projective,0.01,8126,be_right,15,be_right,C,NA,default,22,Yes,NA,Female,English,NA,11
3286,default,block1,tony,projective,0.81,10798,confess,16,confess,C,NA,default,22,Yes,NA,Female,English,NA,12
3286,default,block1,pizza,projective,0.97,6544,MC,17,MC,MC,NA,default,22,Yes,NA,Female,English,NA,13
3286,default,block1,olivia,projective,0.12,8575,prove,18,prove,C,NA,default,22,Yes,NA,Female,English,NA,14
3286,default,block1,sophia,projective,0.8,5823,admit,19,admit,C,NA,default,22,Yes,NA,Female,English,NA,15
3286,default,block1,josie,projective,0.28,9086,reveal,20,reveal,C,NA,default,22,Yes,NA,Female,English,NA,16
3286,default,block1,jon,projective,0.28,8239,announce,21,announce,C,NA,default,22,Yes,NA,Female,English,NA,17
3286,default,block1,emily,projective,0.05,6230,think,22,think,C,NA,default,22,Yes,NA,Female,English,NA,18
3286,default,block1,mary,projective,0.08,6848,suggest,23,suggest,C,NA,default,22,Yes,NA,Female,English,NA,19
3286,default,block1,muffins,projective,0.98,5511,MC,24,MC,MC,NA,default,22,Yes,NA,Female,English,NA,20
3286,default,block1,grace,projective,0.44,12319,discover,25,discover,C,NA,default,22,Yes,NA,Female,English,NA,21
3286,default,block1,ballet,projective,0.98,5751,MC,26,MC,MC,NA,default,22,Yes,NA,Female,English,NA,22
3286,default,block1,owen,projective,0.59,10079,know,27,know,C,NA,default,22,Yes,NA,Female,English,NA,23
3286,default,block1,danny,projective,0.2,5807,demonstrate,28,demonstrate,C,NA,default,22,Yes,NA,Female,English,NA,24
3286,default,block1,jayden,projective,0.12,7159,establish,29,establish,C,NA,default,22,Yes,NA,Female,English,NA,25
3286,default,block1,kids,projective,0.96,10166,MC,30,MC,MC,NA,default,22,Yes,NA,Female,English,NA,26
3286,default,block2,pizza,ai,0.09999999999999998,44871,MC,32,MC,MC,NA,default,22,Yes,NA,Female,English,NA,27
3286,default,block2,jackson,ai,0.17000000000000004,7751,inform,33,inform,C,NA,default,22,Yes,NA,Female,English,NA,28
3286,default,block2,grace,ai,0.13,7839,discover,34,discover,C,NA,default,22,Yes,NA,Female,English,NA,29
3286,default,block2,muffins,ai,0.15000000000000002,7071,MC,35,MC,MC,NA,default,22,Yes,NA,Female,English,NA,30
3286,default,block2,jayden,ai,0.08999999999999997,15966,establish,36,establish,C,NA,default,22,Yes,NA,Female,English,NA,31
3286,default,block2,josh,ai,0.18000000000000005,7855,be_annoyed,37,be_annoyed,C,NA,default,22,Yes,NA,Female,English,NA,32
3286,default,block2,emma,ai,0.040000000000000036,5343,acknowledge,38,acknowledge,C,NA,default,22,Yes,NA,Female,English,NA,33
3286,default,block2,josie,ai,0.21999999999999997,5639,reveal,39,reveal,C,NA,default,22,Yes,NA,Female,English,NA,34
3286,default,block2,frank,ai,0.08999999999999997,2663,see,40,see,C,NA,default,22,Yes,NA,Female,English,NA,35
3286,default,block2,jon,ai,0.16000000000000003,6441,announce,41,announce,C,NA,default,22,Yes,NA,Female,English,NA,36
3286,default,block2,olivia,ai,0.16000000000000003,4702,prove,42,prove,C,NA,default,22,Yes,NA,Female,English,NA,37
3286,default,block2,charley,ai,0.22999999999999998,5759,be_right,43,be_right,C,NA,default,22,Yes,NA,Female,English,NA,38
3286,default,block2,kids,ai,0.030000000000000027,4967,MC,44,MC,MC,NA,default,22,Yes,NA,Female,English,NA,39
3286,default,block2,zoe,ai,0.06999999999999995,2888,hear,45,hear,C,NA,default,22,Yes,NA,Female,English,NA,40
3286,default,block2,tony,ai,0.18000000000000005,2007,confess,46,confess,C,NA,default,22,Yes,NA,Female,English,NA,41
3286,default,block2,mary,ai,0.12,1272,suggest,47,suggest,C,NA,default,22,Yes,NA,Female,English,NA,42
3286,default,block2,hat,ai,0.09999999999999998,1513,MC,48,MC,MC,NA,default,22,Yes,NA,Female,English,NA,43
3286,default,block2,emily,ai,0.13,1662,think,49,think,C,NA,default,22,Yes,NA,Female,English,NA,44
3286,default,block2,mia,ai,0.20999999999999996,2016,confirm,50,confirm,C,NA,default,22,Yes,NA,Female,English,NA,45
3286,default,block2,garage,ai,0.24,1599,MC,51,MC,MC,NA,default,22,Yes,NA,Female,English,NA,46
3286,default,block2,julian,ai,0.16000000000000003,1936,say,52,say,C,NA,default,22,Yes,NA,Female,English,NA,47
3286,default,block2,ballet,ai,0.25,1480,MC,53,MC,MC,NA,default,22,Yes,NA,Female,English,NA,48
3286,default,block2,owen,ai,0.21999999999999997,2064,know,54,know,C,NA,default,22,Yes,NA,Female,English,NA,49
3286,default,block2,danny,ai,0.21999999999999997,1183,demonstrate,55,demonstrate,C,NA,default,22,Yes,NA,Female,English,NA,50
3286,default,block2,sophia,ai,0.20999999999999996,1080,admit,56,admit,C,NA,default,22,Yes,NA,Female,English,NA,51
3286,default,block2,isabella,ai,0.20999999999999996,1184,pretend,57,pretend,C,NA,default,22,Yes,NA,Female,English,NA,52
3085,default,block1,josie,ai,0.65,28425,suggest,5,suggest,C,NA,default,19,Yes,NA,Female,English,NA,1
3085,default,block1,muffins,ai,0.18999999999999995,8769,MC,6,MC,MC,NA,default,19,Yes,NA,Female,English,NA,2
3085,default,block1,emma,ai,0.48,13529,confirm,7,confirm,C,NA,default,19,Yes,NA,Female,English,NA,3
3085,default,block1,mary,ai,0.61,13870,demonstrate,8,demonstrate,C,NA,default,19,Yes,NA,Female,English,NA,4
3085,default,block1,tony,ai,0.6,13808,be_annoyed,9,be_annoyed,C,NA,default,19,Yes,NA,Female,English,NA,5
3085,default,block1,charley,ai,0.43000000000000005,9524,be_right,10,be_right,C,NA,default,19,Yes,NA,Female,English,NA,6
3085,default,block1,kids,ai,0,11392,MC,11,MC,MC,NA,default,19,Yes,NA,Female,English,NA,7
3085,default,block1,sophia,ai,0.45999999999999996,6484,announce,12,announce,C,NA,default,19,Yes,NA,Female,English,NA,8
3085,default,block1,isabella,ai,0.43999999999999995,5447,pretend,13,pretend,C,NA,default,19,Yes,NA,Female,English,NA,9
3085,default,block1,mia,ai,0.41000000000000003,8777,hear,14,hear,C,NA,default,19,Yes,NA,Female,English,NA,10
3085,default,block1,julian,ai,0.36,9182,inform,15,inform,C,NA,default,19,Yes,NA,Female,English,NA,11
3085,default,block1,zoe,ai,0.54,8512,say,16,say,C,NA,default,19,Yes,NA,Female,English,NA,12
3085,default,block1,emily,ai,0.43999999999999995,9799,admit,17,admit,C,NA,default,19,Yes,NA,Female,English,NA,13
3085,default,block1,hat,ai,0.010000000000000009,5085,MC,18,MC,MC,NA,default,19,Yes,NA,Female,English,NA,14
3085,default,block1,frank,ai,0.61,8151,establish,19,establish,C,NA,default,19,Yes,NA,Female,English,NA,15
3085,default,block1,olivia,ai,0.69,5960,confess,20,confess,C,NA,default,19,Yes,NA,Female,English,NA,16
3085,default,block1,jayden,ai,0.63,8623,discover,21,discover,C,NA,default,19,Yes,NA,Female,English,NA,17
3085,default,block1,jackson,ai,0.6,5258,reveal,22,reveal,C,NA,default,19,Yes,NA,Female,English,NA,18
3085,default,block1,josh,ai,0.42000000000000004,8502,prove,23,prove,C,NA,default,19,Yes,NA,Female,English,NA,19
3085,default,block1,danny,ai,0.48,5681,see,24,see,C,NA,default,19,Yes,NA,Female,English,NA,20
3085,default,block1,jon,ai,0.43999999999999995,11528,know,25,know,C,NA,default,19,Yes,NA,Female,English,NA,21
3085,default,block1,ballet,ai,0.030000000000000027,4107,MC,26,MC,MC,NA,default,19,Yes,NA,Female,English,NA,22
3085,default,block1,owen,ai,0.41000000000000003,8611,think,27,think,C,NA,default,19,Yes,NA,Female,English,NA,23
3085,default,block1,grace,ai,0.43000000000000005,20890,acknowledge,28,acknowledge,C,NA,default,19,Yes,NA,Female,English,NA,24
3085,default,block1,garage,ai,0.31999999999999995,8370,MC,29,MC,MC,NA,default,19,Yes,NA,Female,English,NA,25
3085,default,block1,pizza,ai,0.30000000000000004,5666,MC,30,MC,MC,NA,default,19,Yes,NA,Female,English,NA,26
3085,default,block2,julian,projective,0.97,7755,inform,32,inform,C,NA,default,19,Yes,NA,Female,English,NA,27
3085,default,block2,mia,projective,0.97,6528,hear,33,hear,C,NA,default,19,Yes,NA,Female,English,NA,28
3085,default,block2,olivia,projective,0.97,6997,confess,34,confess,C,NA,default,19,Yes,NA,Female,English,NA,29
3085,default,block2,hat,projective,0.97,5474,MC,35,MC,MC,NA,default,19,Yes,NA,Female,English,NA,30
3085,default,block2,danny,projective,0.4,7866,see,36,see,C,NA,default,19,Yes,NA,Female,English,NA,31
3085,default,block2,jackson,projective,0.87,5189,reveal,37,reveal,C,NA,default,19,Yes,NA,Female,English,NA,32
3085,default,block2,emily,projective,0.72,5441,admit,38,admit,C,NA,default,19,Yes,NA,Female,English,NA,33
3085,default,block2,frank,projective,0.87,7345,establish,39,establish,C,NA,default,19,Yes,NA,Female,English,NA,34
3085,default,block2,owen,projective,0.4,6845,think,40,think,C,NA,default,19,Yes,NA,Female,English,NA,35
3085,default,block2,emma,projective,0.52,16021,confirm,41,confirm,C,NA,default,19,Yes,NA,Female,English,NA,36
3085,default,block2,josh,projective,0.35,5506,prove,42,prove,C,NA,default,19,Yes,NA,Female,English,NA,37
3085,default,block2,isabella,projective,0.14,7289,pretend,43,pretend,C,NA,default,19,Yes,NA,Female,English,NA,38
3085,default,block2,kids,projective,0.95,7096,MC,44,MC,MC,NA,default,19,Yes,NA,Female,English,NA,39
3085,default,block2,jon,projective,0.95,5517,know,45,know,C,NA,default,19,Yes,NA,Female,English,NA,40
3085,default,block2,mary,projective,0.39,4947,demonstrate,46,demonstrate,C,NA,default,19,Yes,NA,Female,English,NA,41
3085,default,block2,josie,projective,0.71,6800,suggest,47,suggest,C,NA,default,19,Yes,NA,Female,English,NA,42
3085,default,block2,zoe,projective,0.3,5392,say,48,say,C,NA,default,19,Yes,NA,Female,English,NA,43
3085,default,block2,charley,projective,0.08,9884,be_right,49,be_right,C,NA,default,19,Yes,NA,Female,English,NA,44
3085,default,block2,jayden,projective,0.9,5886,discover,50,discover,C,NA,default,19,Yes,NA,Female,English,NA,45
3085,default,block2,garage,projective,0.98,10550,MC,51,MC,MC,NA,default,19,Yes,NA,Female,English,NA,46
3085,default,block2,grace,projective,0.52,49024,acknowledge,52,acknowledge,C,NA,default,19,Yes,NA,Female,English,NA,47
3085,default,block2,muffins,projective,0.97,4093,MC,53,MC,MC,NA,default,19,Yes,NA,Female,English,NA,48
3085,default,block2,tony,projective,0.89,13455,be_annoyed,54,be_annoyed,C,NA,default,19,Yes,NA,Female,English,NA,49
3085,default,block2,ballet,projective,0.99,4754,MC,55,MC,MC,NA,default,19,Yes,NA,Female,English,NA,50
3085,default,block2,sophia,projective,0.33,5118,announce,56,announce,C,NA,default,19,Yes,NA,Female,English,NA,51
3085,default,block2,pizza,projective,0.97,6946,MC,57,MC,MC,NA,default,19,Yes,NA,Female,English,NA,52
3118,default,block1,julian,projective,0.84,15421,see,5,see,C,NA,default,18,Yes,NA,Female,English,NA,1
3118,default,block1,kids,projective,1,6770,MC,6,MC,MC,NA,default,18,Yes,NA,Female,English,NA,2
3118,default,block1,danny,projective,0.88,9233,be_annoyed,7,be_annoyed,C,NA,default,18,Yes,NA,Female,English,NA,3
3118,default,block1,olivia,projective,0.69,8423,acknowledge,8,acknowledge,C,NA,default,18,Yes,NA,Female,English,NA,4
3118,default,block1,emma,projective,0.35,6304,prove,9,prove,C,NA,default,18,Yes,NA,Female,English,NA,5
3118,default,block1,garage,projective,1,3430,MC,10,MC,MC,NA,default,18,Yes,NA,Female,English,NA,6
3118,default,block1,pizza,projective,1,4848,MC,11,MC,MC,NA,default,18,Yes,NA,Female,English,NA,7
3118,default,block1,josh,projective,0.21,11408,pretend,12,pretend,C,NA,default,18,Yes,NA,Female,English,NA,8
3118,default,block1,mary,projective,0.76,6530,know,13,know,C,NA,default,18,Yes,NA,Female,English,NA,9
3118,default,block1,sophia,projective,0.43,10033,reveal,14,reveal,C,NA,default,18,Yes,NA,Female,English,NA,10
3118,default,block1,jayden,projective,0.5,6301,demonstrate,15,demonstrate,C,NA,default,18,Yes,NA,Female,English,NA,11
3118,default,block1,isabella,projective,0.34,6290,suggest,16,suggest,C,NA,default,18,Yes,NA,Female,English,NA,12
3118,default,block1,josie,projective,0.24,5514,admit,17,admit,C,NA,default,18,Yes,NA,Female,English,NA,13
3118,default,block1,muffins,projective,1,2981,MC,18,MC,MC,NA,default,18,Yes,NA,Female,English,NA,14
3118,default,block1,frank,projective,0.84,4595,discover,19,discover,C,NA,default,18,Yes,NA,Female,English,NA,15
3118,default,block1,tony,projective,0.3,7177,think,20,think,C,NA,default,18,Yes,NA,Female,English,NA,16
3118,default,block1,grace,projective,0.84,6117,announce,21,announce,C,NA,default,18,Yes,NA,Female,English,NA,17
3118,default,block1,jackson,projective,0.32,4173,confirm,22,confirm,C,NA,default,18,Yes,NA,Female,English,NA,18
3118,default,block1,emily,projective,0.69,9932,inform,23,inform,C,NA,default,18,Yes,NA,Female,English,NA,19
3118,default,block1,zoe,projective,0.31,5406,be_right,24,be_right,C,NA,default,18,Yes,NA,Female,English,NA,20
3118,default,block1,ballet,projective,1,2710,MC,25,MC,MC,NA,default,18,Yes,NA,Female,English,NA,21
3118,default,block1,mia,projective,0.49,7624,establish,26,establish,C,NA,default,18,Yes,NA,Female,English,NA,22
3118,default,block1,jon,projective,0.27,5158,say,27,say,C,NA,default,18,Yes,NA,Female,English,NA,23
3118,default,block1,charley,projective,0.79,5237,hear,28,hear,C,NA,default,18,Yes,NA,Female,English,NA,24
3118,default,block1,owen,projective,0.37,6178,confess,29,confess,C,NA,default,18,Yes,NA,Female,English,NA,25
3118,default,block1,hat,projective,1,4056,MC,30,MC,MC,NA,default,18,Yes,NA,Female,English,NA,26
3118,default,block2,charley,ai,0,10055,hear,32,hear,C,NA,default,18,Yes,NA,Female,English,NA,27
3118,default,block2,zoe,ai,0.52,8974,be_right,33,be_right,C,NA,default,18,Yes,NA,Female,English,NA,28
3118,default,block2,tony,ai,0.85,4909,think,34,think,C,NA,default,18,Yes,NA,Female,English,NA,29
3118,default,block2,josh,ai,0.84,4081,pretend,35,pretend,C,NA,default,18,Yes,NA,Female,English,NA,30
3118,default,block2,pizza,ai,0,3958,MC,36,MC,MC,NA,default,18,Yes,NA,Female,English,NA,31
3118,default,block2,grace,ai,0.48,4636,announce,37,announce,C,NA,default,18,Yes,NA,Female,English,NA,32
3118,default,block2,mary,ai,0.95,3844,know,38,know,C,NA,default,18,Yes,NA,Female,English,NA,33
3118,default,block2,jackson,ai,0.030000000000000027,4915,confirm,39,confirm,C,NA,default,18,Yes,NA,Female,English,NA,34
3118,default,block2,danny,ai,0.78,2966,be_annoyed,40,be_annoyed,C,NA,default,18,Yes,NA,Female,English,NA,35
3118,default,block2,ballet,ai,0,2612,MC,41,MC,MC,NA,default,18,Yes,NA,Female,English,NA,36
3118,default,block2,olivia,ai,0.78,4521,acknowledge,42,acknowledge,C,NA,default,18,Yes,NA,Female,English,NA,37
3118,default,block2,muffins,ai,0,2297,MC,43,MC,MC,NA,default,18,Yes,NA,Female,English,NA,38
3118,default,block2,jon,ai,0.83,2792,say,44,say,C,NA,default,18,Yes,NA,Female,English,NA,39
3118,default,block2,mia,ai,0.74,2544,establish,45,establish,C,NA,default,18,Yes,NA,Female,English,NA,40
3118,default,block2,julian,ai,0,2431,see,46,see,C,NA,default,18,Yes,NA,Female,English,NA,41
3118,default,block2,owen,ai,0.83,3710,confess,47,confess,C,NA,default,18,Yes,NA,Female,English,NA,42
3118,default,block2,hat,ai,0,3399,MC,48,MC,MC,NA,default,18,Yes,NA,Female,English,NA,43
3118,default,block2,emily,ai,0,2899,inform,49,inform,C,NA,default,18,Yes,NA,Female,English,NA,44
3118,default,block2,jayden,ai,0.87,2402,demonstrate,50,demonstrate,C,NA,default,18,Yes,NA,Female,English,NA,45
3118,default,block2,sophia,ai,0.09999999999999998,2534,reveal,51,reveal,C,NA,default,18,Yes,NA,Female,English,NA,46
3118,default,block2,garage,ai,0.020000000000000018,2860,MC,52,MC,MC,NA,default,18,Yes,NA,Female,English,NA,47
3118,default,block2,isabella,ai,0.030000000000000027,2657,suggest,53,suggest,C,NA,default,18,Yes,NA,Female,English,NA,48
3118,default,block2,kids,ai,0.020000000000000018,3013,MC,54,MC,MC,NA,default,18,Yes,NA,Female,English,NA,49
3118,default,block2,josie,ai,0.89,3784,admit,55,admit,C,NA,default,18,Yes,NA,Female,English,NA,50
3118,default,block2,frank,ai,0.9299999999999999,2197,discover,56,discover,C,NA,default,18,Yes,NA,Female,English,NA,51
3118,default,block2,emma,ai,0.08999999999999997,2778,prove,57,prove,C,NA,default,18,Yes,NA,Female,English,NA,52
3251,default,block1,jackson,projective,0.5,7150,be_right,5,be_right,C,NA,default,29,Yes,NA,Female,English,NA,1
3251,default,block1,mia,projective,0.58,9518,prove,6,prove,C,NA,default,29,Yes,NA,Female,English,NA,2
3251,default,block1,julian,projective,0.74,7855,demonstrate,7,demonstrate,C,NA,default,29,Yes,NA,Female,English,NA,3
3251,default,block1,emma,projective,0.96,4929,hear,8,hear,C,NA,default,29,Yes,NA,Female,English,NA,4
3251,default,block1,muffins,projective,0.99,4907,MC,9,MC,MC,NA,default,29,Yes,NA,Female,English,NA,5
3251,default,block1,olivia,projective,0.9,4807,discover,10,discover,C,NA,default,29,Yes,NA,Female,English,NA,6
3251,default,block1,hat,projective,1,4169,MC,11,MC,MC,NA,default,29,Yes,NA,Female,English,NA,7
3251,default,block1,pizza,projective,0.99,4800,MC,12,MC,MC,NA,default,29,Yes,NA,Female,English,NA,8
3251,default,block1,isabella,projective,0.91,7124,admit,13,admit,C,NA,default,29,Yes,NA,Female,English,NA,9
3251,default,block1,tony,projective,0.46,5413,suggest,14,suggest,C,NA,default,29,Yes,NA,Female,English,NA,10
3251,default,block1,josh,projective,0.98,6170,reveal,15,reveal,C,NA,default,29,Yes,NA,Female,English,NA,11
3251,default,block1,owen,projective,0.09,6107,pretend,16,pretend,C,NA,default,29,Yes,NA,Female,English,NA,12
3251,default,block1,jayden,projective,0.4,7241,say,17,say,C,NA,default,29,Yes,NA,Female,English,NA,13
3251,default,block1,garage,projective,1,7270,MC,18,MC,MC,NA,default,29,Yes,NA,Female,English,NA,14
3251,default,block1,mary,projective,0.52,3527,establish,19,establish,C,NA,default,29,Yes,NA,Female,English,NA,15
3251,default,block1,ballet,projective,0.99,3263,MC,20,MC,MC,NA,default,29,Yes,NA,Female,English,NA,16
3251,default,block1,jon,projective,0.89,5039,know,21,know,C,NA,default,29,Yes,NA,Female,English,NA,17
3251,default,block1,frank,projective,0.71,3939,announce,22,announce,C,NA,default,29,Yes,NA,Female,English,NA,18
3251,default,block1,danny,projective,0.28,10310,see,23,see,C,NA,default,29,Yes,NA,Female,English,NA,19
3251,default,block1,emily,projective,0.81,16259,acknowledge,24,acknowledge,C,NA,default,29,Yes,NA,Female,English,NA,20
3251,default,block1,zoe,projective,0.88,4130,confirm,25,confirm,C,NA,default,29,Yes,NA,Female,English,NA,21
3251,default,block1,kids,projective,1,3872,MC,26,MC,MC,NA,default,29,Yes,NA,Female,English,NA,22
3251,default,block1,sophia,projective,0.91,5708,be_annoyed,27,be_annoyed,C,NA,default,29,Yes,NA,Female,English,NA,23
3251,default,block1,josie,projective,0.07,8424,think,28,think,C,NA,default,29,Yes,NA,Female,English,NA,24
3251,default,block1,charley,projective,0.97,5938,confess,29,confess,C,NA,default,29,Yes,NA,Female,English,NA,25
3251,default,block1,grace,projective,0.89,4931,inform,30,inform,C,NA,default,29,Yes,NA,Female,English,NA,26
3251,default,block2,jackson,ai,0.36,14275,be_right,32,be_right,C,NA,default,29,Yes,NA,Female,English,NA,27
3251,default,block2,olivia,ai,0.19999999999999996,6958,discover,33,discover,C,NA,default,29,Yes,NA,Female,English,NA,28
3251,default,block2,pizza,ai,0.030000000000000027,5719,MC,34,MC,MC,NA,default,29,Yes,NA,Female,English,NA,29
3251,default,block2,mary,ai,0.25,5450,establish,35,establish,C,NA,default,29,Yes,NA,Female,English,NA,30
3251,default,block2,emily,ai,0.19999999999999996,4098,acknowledge,36,acknowledge,C,NA,default,29,Yes,NA,Female,English,NA,31
3251,default,block2,owen,ai,0.8,6242,pretend,37,pretend,C,NA,default,29,Yes,NA,Female,English,NA,32
3251,default,block2,muffins,ai,0.18999999999999995,4209,MC,38,MC,MC,NA,default,29,Yes,NA,Female,English,NA,33
3251,default,block2,julian,ai,0.24,4168,demonstrate,39,demonstrate,C,NA,default,29,Yes,NA,Female,English,NA,34
3251,default,block2,zoe,ai,0.15000000000000002,5721,confirm,40,confirm,C,NA,default,29,Yes,NA,Female,English,NA,35
3251,default,block2,hat,ai,0.09999999999999998,3466,MC,41,MC,MC,NA,default,29,Yes,NA,Female,English,NA,36
3251,default,block2,ballet,ai,0.13,2805,MC,42,MC,MC,NA,default,29,Yes,NA,Female,English,NA,37
3251,default,block2,mia,ai,0.74,3664,prove,43,prove,C,NA,default,29,Yes,NA,Female,English,NA,38
3251,default,block2,charley,ai,0.16000000000000003,3420,confess,44,confess,C,NA,default,29,Yes,NA,Female,English,NA,39
3251,default,block2,frank,ai,0.15000000000000002,4151,announce,45,announce,C,NA,default,29,Yes,NA,Female,English,NA,40
3251,default,block2,jon,ai,0.30000000000000004,3632,know,46,know,C,NA,default,29,Yes,NA,Female,English,NA,41
3251,default,block2,josh,ai,0.18000000000000005,4264,reveal,47,reveal,C,NA,default,29,Yes,NA,Female,English,NA,42
3251,default,block2,tony,ai,0.89,5421,suggest,48,suggest,C,NA,default,29,Yes,NA,Female,English,NA,43
3251,default,block2,grace,ai,0.24,2919,inform,49,inform,C,NA,default,29,Yes,NA,Female,English,NA,44
3251,default,block2,garage,ai,0.19999999999999996,5178,MC,50,MC,MC,NA,default,29,Yes,NA,Female,English,NA,45
3251,default,block2,sophia,ai,0.18999999999999995,4021,be_annoyed,51,be_annoyed,C,NA,default,29,Yes,NA,Female,English,NA,46
3251,default,block2,jayden,ai,0.72,3834,say,52,say,C,NA,default,29,Yes,NA,Female,English,NA,47
3251,default,block2,emma,ai,0.22999999999999998,4391,hear,53,hear,C,NA,default,29,Yes,NA,Female,English,NA,48
3251,default,block2,isabella,ai,0.27,4820,admit,54,admit,C,NA,default,29,Yes,NA,Female,English,NA,49
3251,default,block2,danny,ai,0.26,3773,see,55,see,C,NA,default,29,Yes,NA,Female,English,NA,50
3251,default,block2,josie,ai,0.92,4513,think,56,think,C,NA,default,29,Yes,NA,Female,English,NA,51
3251,default,block2,kids,ai,0.30000000000000004,4704,MC,57,MC,MC,NA,default,29,Yes,NA,Female,English,NA,52
3265,default,block1,emily,projective,0.01,12122,announce,5,announce,C,NA,default,NA,Yes,NA,Female,English,NA,1
3265,default,block1,emma,projective,0.04,5818,confess,6,confess,C,NA,default,NA,Yes,NA,Female,English,NA,2
3265,default,block1,pizza,projective,0.98,10190,MC,7,MC,MC,NA,default,NA,Yes,NA,Female,English,NA,3
3265,default,block1,frank,projective,0.05,6904,pretend,8,pretend,C,NA,default,NA,Yes,NA,Female,English,NA,4
3265,default,block1,owen,projective,0.02,8551,hear,9,hear,C,NA,default,NA,Yes,NA,Female,English,NA,5
3265,default,block1,olivia,projective,0.01,5845,think,10,think,C,NA,default,NA,Yes,NA,Female,English,NA,6
3265,default,block1,hat,projective,0.96,7773,MC,11,MC,MC,NA,default,NA,Yes,NA,Female,English,NA,7
3265,default,block1,zoe,projective,0.96,10973,acknowledge,12,acknowledge,C,NA,default,NA,Yes,NA,Female,English,NA,8
3265,default,block1,jayden,projective,0.02,9187,confirm,13,confirm,C,NA,default,NA,Yes,NA,Female,English,NA,9
3265,default,block1,muffins,projective,0.98,8756,MC,14,MC,MC,NA,default,NA,Yes,NA,Female,English,NA,10
3265,default,block1,julian,projective,0.98,10798,suggest,15,suggest,C,NA,default,NA,Yes,NA,Female,English,NA,11
3265,default,block1,garage,projective,0.98,8503,MC,16,MC,MC,NA,default,NA,Yes,NA,Female,English,NA,12
3265,default,block1,ballet,projective,0.98,5314,MC,17,MC,MC,NA,default,NA,Yes,NA,Female,English,NA,13
3265,default,block1,kids,projective,0.98,5382,MC,18,MC,MC,NA,default,NA,Yes,NA,Female,English,NA,14
3265,default,block1,josh,projective,0.98,8169,inform,19,inform,C,NA,default,NA,Yes,NA,Female,English,NA,15
3265,default,block1,mia,projective,0.04,9816,be_right,20,be_right,C,NA,default,NA,Yes,NA,Female,English,NA,16
3265,default,block1,tony,projective,0.97,7394,know,21,know,C,NA,default,NA,Yes,NA,Female,English,NA,17
3265,default,block1,charley,projective,0.98,8401,be_annoyed,22,be_annoyed,C,NA,default,NA,Yes,NA,Female,English,NA,18
3265,default,block1,sophia,projective,0.02,10623,prove,23,prove,C,NA,default,NA,Yes,NA,Female,English,NA,19
3265,default,block1,grace,projective,0.01,11253,discover,24,discover,C,NA,default,NA,Yes,NA,Female,English,NA,20
3265,default,block1,jon,projective,0.98,7728,see,25,see,C,NA,default,NA,Yes,NA,Female,English,NA,21
3265,default,block1,isabella,projective,0.98,8563,establish,26,establish,C,NA,default,NA,Yes,NA,Female,English,NA,22
3265,default,block1,josie,projective,0.97,7407,admit,27,admit,C,NA,default,NA,Yes,NA,Female,English,NA,23
3265,default,block1,danny,projective,0.97,8574,demonstrate,28,demonstrate,C,NA,default,NA,Yes,NA,Female,English,NA,24
3265,default,block1,mary,projective,0.98,3249,reveal,29,reveal,C,NA,default,NA,Yes,NA,Female,English,NA,25
3265,default,block1,jackson,projective,0.97,4613,say,30,say,C,NA,default,NA,Yes,NA,Female,English,NA,26
3265,default,block2,josie,ai,0.020000000000000018,22076,admit,32,admit,C,NA,default,NA,Yes,NA,Female,English,NA,27
3265,default,block2,mary,ai,0.98,7998,reveal,33,reveal,C,NA,default,NA,Yes,NA,Female,English,NA,28
3265,default,block2,jon,ai,0.99,4217,see,34,see,C,NA,default,NA,Yes,NA,Female,English,NA,29
3265,default,block2,olivia,ai,0.98,7071,think,35,think,C,NA,default,NA,Yes,NA,Female,English,NA,30
3265,default,block2,zoe,ai,0.010000000000000009,10016,acknowledge,36,acknowledge,C,NA,default,NA,Yes,NA,Female,English,NA,31
3265,default,block2,mia,ai,0.97,3534,be_right,37,be_right,C,NA,default,NA,Yes,NA,Female,English,NA,32
3265,default,block2,pizza,ai,0.020000000000000018,4621,MC,38,MC,MC,NA,default,NA,Yes,NA,Female,English,NA,33
3265,default,block2,danny,ai,0.97,3840,demonstrate,39,demonstrate,C,NA,default,NA,Yes,NA,Female,English,NA,34
3265,default,block2,ballet,ai,0.040000000000000036,3419,MC,40,MC,MC,NA,default,NA,Yes,NA,Female,English,NA,35
3265,default,block2,tony,ai,0.97,2896,know,41,know,C,NA,default,NA,Yes,NA,Female,English,NA,36
3265,default,block2,hat,ai,0.040000000000000036,2839,MC,42,MC,MC,NA,default,NA,Yes,NA,Female,English,NA,37
3265,default,block2,grace,ai,0.010000000000000009,3960,discover,43,discover,C,NA,default,NA,Yes,NA,Female,English,NA,38
3265,default,block2,emma,ai,0.040000000000000036,4111,confess,44,confess,C,NA,default,NA,Yes,NA,Female,English,NA,39
3265,default,block2,garage,ai,0.020000000000000018,2812,MC,45,MC,MC,NA,default,NA,Yes,NA,Female,English,NA,40
3265,default,block2,isabella,ai,0.010000000000000009,5123,establish,46,establish,C,NA,default,NA,Yes,NA,Female,English,NA,41
3265,default,block2,emily,ai,0.030000000000000027,2900,announce,47,announce,C,NA,default,NA,Yes,NA,Female,English,NA,42
3265,default,block2,josh,ai,1,6516,inform,48,inform,C,NA,default,NA,Yes,NA,Female,English,NA,43
3265,default,block2,jayden,ai,0.99,2868,confirm,49,confirm,C,NA,default,NA,Yes,NA,Female,English,NA,44
3265,default,block2,muffins,ai,0.030000000000000027,2853,MC,50,MC,MC,NA,default,NA,Yes,NA,Female,English,NA,45
3265,default,block2,owen,ai,0.97,3474,hear,51,hear,C,NA,default,NA,Yes,NA,Female,English,NA,46
3265,default,block2,jackson,ai,0.010000000000000009,5023,say,52,say,C,NA,default,NA,Yes,NA,Female,English,NA,47
3265,default,block2,frank,ai,0.98,4454,pretend,53,pretend,C,NA,default,NA,Yes,NA,Female,English,NA,48
3265,default,block2,kids,ai,0.020000000000000018,2589,MC,54,MC,MC,NA,default,NA,Yes,NA,Female,English,NA,49
3265,default,block2,charley,ai,0.020000000000000018,2884,be_annoyed,55,be_annoyed,C,NA,default,NA,Yes,NA,Female,English,NA,50
3265,default,block2,sophia,ai,0.050000000000000044,4233,prove,56,prove,C,NA,default,NA,Yes,NA,Female,English,NA,51
3265,default,block2,julian,ai,0.030000000000000027,3593,suggest,57,suggest,C,NA,default,NA,Yes,NA,Female,English,NA,52
3155,default,block1,emily,ai,0.18000000000000005,66531,confess,5,confess,C,NA,default,20,Yes,NA,Female,Spanish/English,NA,1
3155,default,block1,mia,ai,0.26,43025,think,6,think,C,NA,default,20,Yes,NA,Female,Spanish/English,NA,2
3155,default,block1,mary,ai,0.040000000000000036,31619,announce,7,announce,C,NA,default,20,Yes,NA,Female,Spanish/English,NA,3
3155,default,block1,danny,ai,0.030000000000000027,14408,admit,8,admit,C,NA,default,20,Yes,NA,Female,Spanish/English,NA,4
3155,default,block1,frank,ai,0.14,19653,hear,9,hear,C,NA,default,20,Yes,NA,Female,Spanish/English,NA,5
3155,default,block1,muffins,ai,0.06999999999999995,34001,MC,10,MC,MC,NA,default,20,Yes,NA,Female,Spanish/English,NA,6
3155,default,block1,kids,ai,0.030000000000000027,9477,MC,11,MC,MC,NA,default,20,Yes,NA,Female,Spanish/English,NA,7
3155,default,block1,josie,ai,0.06999999999999995,9231,discover,12,discover,C,NA,default,20,Yes,NA,Female,Spanish/English,NA,8
3155,default,block1,grace,ai,0.17000000000000004,46768,establish,13,establish,C,NA,default,20,Yes,NA,Female,Spanish/English,NA,9
3155,default,block1,pizza,ai,0.09999999999999998,9682,MC,14,MC,MC,NA,default,20,Yes,NA,Female,Spanish/English,NA,10
3155,default,block1,sophia,ai,0.14,8436,inform,15,inform,C,NA,default,20,Yes,NA,Female,Spanish/English,NA,11
3155,default,block1,garage,ai,0.020000000000000018,6627,MC,16,MC,MC,NA,default,20,Yes,NA,Female,Spanish/English,NA,12
3155,default,block1,charley,ai,0.030000000000000027,9156,see,17,see,C,NA,default,20,Yes,NA,Female,Spanish/English,NA,13
3155,default,block1,jon,ai,0.010000000000000009,12538,know,18,know,C,NA,default,20,Yes,NA,Female,Spanish/English,NA,14
3155,default,block1,isabella,ai,0.12,23040,be_annoyed,19,be_annoyed,C,NA,default,20,Yes,NA,Female,Spanish/English,NA,15
3155,default,block1,jackson,ai,0.98,24409,be_right,20,be_right,C,NA,default,20,Yes,NA,Female,Spanish/English,NA,16
3155,default,block1,hat,ai,0.040000000000000036,6295,MC,21,MC,MC,NA,default,20,Yes,NA,Female,Spanish/English,NA,17
3155,default,block1,emma,ai,0.84,12880,demonstrate,22,demonstrate,C,NA,default,20,Yes,NA,Female,Spanish/English,NA,18
3155,default,block1,zoe,ai,0.94,11087,say,23,say,C,NA,default,20,Yes,NA,Female,Spanish/English,NA,19
3155,default,block1,olivia,ai,0.98,9811,suggest,24,suggest,C,NA,default,20,Yes,NA,Female,Spanish/English,NA,20
3155,default,block1,tony,ai,0.92,5927,confirm,25,confirm,C,NA,default,20,Yes,NA,Female,Spanish/English,NA,21
3155,default,block1,jayden,ai,0.98,6931,prove,26,prove,C,NA,default,20,Yes,NA,Female,Spanish/English,NA,22
3155,default,block1,josh,ai,1,20879,pretend,27,pretend,C,NA,default,20,Yes,NA,Female,Spanish/English,NA,23
3155,default,block1,julian,ai,0.040000000000000036,7107,reveal,28,reveal,C,NA,default,20,Yes,NA,Female,Spanish/English,NA,24
3155,default,block1,ballet,ai,0.030000000000000027,16721,MC,29,MC,MC,NA,default,20,Yes,NA,Female,Spanish/English,NA,25
3155,default,block1,owen,ai,0.020000000000000018,8920,acknowledge,30,acknowledge,C,NA,default,20,Yes,NA,Female,Spanish/English,NA,26
3155,default,block2,josie,projective,0.96,13371,discover,32,discover,C,NA,default,20,Yes,NA,Female,Spanish/English,NA,27
3155,default,block2,hat,projective,0.99,6897,MC,33,MC,MC,NA,default,20,Yes,NA,Female,Spanish/English,NA,28
3155,default,block2,julian,projective,0.98,5732,reveal,34,reveal,C,NA,default,20,Yes,NA,Female,Spanish/English,NA,29
3155,default,block2,jon,projective,0.97,9758,know,35,know,C,NA,default,20,Yes,NA,Female,Spanish/English,NA,30
3155,default,block2,mia,projective,0.48,24684,think,36,think,C,NA,default,20,Yes,NA,Female,Spanish/English,NA,31
3155,default,block2,jackson,projective,0,10383,be_right,37,be_right,C,NA,default,20,Yes,NA,Female,Spanish/English,NA,32
3155,default,block2,garage,projective,0.98,6911,MC,38,MC,MC,NA,default,20,Yes,NA,Female,Spanish/English,NA,33
3155,default,block2,josh,projective,0,11610,pretend,39,pretend,C,NA,default,20,Yes,NA,Female,Spanish/English,NA,34
3155,default,block2,grace,projective,0.51,17085,establish,40,establish,C,NA,default,20,Yes,NA,Female,Spanish/English,NA,35
3155,default,block2,charley,projective,0.96,7397,see,41,see,C,NA,default,20,Yes,NA,Female,Spanish/English,NA,36
3155,default,block2,kids,projective,0.97,5890,MC,42,MC,MC,NA,default,20,Yes,NA,Female,Spanish/English,NA,37
3155,default,block2,owen,projective,0.97,9034,acknowledge,43,acknowledge,C,NA,default,20,Yes,NA,Female,Spanish/English,NA,38
3155,default,block2,emily,projective,0.48,21640,confess,44,confess,C,NA,default,20,Yes,NA,Female,Spanish/English,NA,39
3155,default,block2,ballet,projective,0.99,8660,MC,45,MC,MC,NA,default,20,Yes,NA,Female,Spanish/English,NA,40
3155,default,block2,jayden,projective,0.12,9391,prove,46,prove,C,NA,default,20,Yes,NA,Female,Spanish/English,NA,41
3155,default,block2,frank,projective,0.91,12498,hear,47,hear,C,NA,default,20,Yes,NA,Female,Spanish/English,NA,42
3155,default,block2,tony,projective,0.22,11206,confirm,48,confirm,C,NA,default,20,Yes,NA,Female,Spanish/English,NA,43
3155,default,block2,zoe,projective,0.98,9188,say,49,say,C,NA,default,20,Yes,NA,Female,Spanish/English,NA,44
3155,default,block2,isabella,projective,0.98,10540,be_annoyed,50,be_annoyed,C,NA,default,20,Yes,NA,Female,Spanish/English,NA,45
3155,default,block2,sophia,projective,0.99,10917,inform,51,inform,C,NA,default,20,Yes,NA,Female,Spanish/English,NA,46
3155,default,block2,muffins,projective,0.98,7806,MC,52,MC,MC,NA,default,20,Yes,NA,Female,Spanish/English,NA,47
3155,default,block2,pizza,projective,1,9134,MC,53,MC,MC,NA,default,20,Yes,NA,Female,Spanish/English,NA,48
3155,default,block2,emma,projective,0.51,10526,demonstrate,54,demonstrate,C,NA,default,20,Yes,NA,Female,Spanish/English,NA,49
3155,default,block2,danny,projective,0.24,7776,admit,55,admit,C,NA,default,20,Yes,NA,Female,Spanish/English,NA,50
3155,default,block2,mary,projective,0.46,27708,announce,56,announce,C,NA,default,20,Yes,NA,Female,Spanish/English,NA,51
3155,default,block2,olivia,projective,0.53,18456,suggest,57,suggest,C,NA,default,20,Yes,NA,Female,Spanish/English,NA,52
3317,default,block1,sophia,projective,0.94,8910,see,5,see,C,NA,default,24,Yes,NA,Female,English,NA,1
3317,default,block1,grace,projective,0.04,6552,confirm,6,confirm,C,NA,default,24,Yes,NA,Female,English,NA,2
3317,default,block1,tony,projective,0.95,4987,know,7,know,C,NA,default,24,Yes,NA,Female,English,NA,3
3317,default,block1,garage,projective,0.96,4437,MC,8,MC,MC,NA,default,24,Yes,NA,Female,English,NA,4
3317,default,block1,julian,projective,0.94,18223,inform,9,inform,C,NA,default,24,Yes,NA,Female,English,NA,5
3317,default,block1,mia,projective,0.93,3236,discover,10,discover,C,NA,default,24,Yes,NA,Female,English,NA,6
3317,default,block1,jon,projective,0.95,7849,hear,11,hear,C,NA,default,24,Yes,NA,Female,English,NA,7
3317,default,block1,emma,projective,0.94,12225,be_annoyed,12,be_annoyed,C,NA,default,24,Yes,NA,Female,English,NA,8
3317,default,block1,isabella,projective,0.97,20367,confess,13,confess,C,NA,default,24,Yes,NA,Female,English,NA,9
3317,default,block1,muffins,projective,0.98,22704,MC,14,MC,MC,NA,default,24,Yes,NA,Female,English,NA,10
3317,default,block1,olivia,projective,0.01,15504,think,15,think,C,NA,default,24,Yes,NA,Female,English,NA,11
3317,default,block1,pizza,projective,0.99,4048,MC,16,MC,MC,NA,default,24,Yes,NA,Female,English,NA,12
3317,default,block1,frank,projective,0.98,6025,reveal,17,reveal,C,NA,default,24,Yes,NA,Female,English,NA,13
3317,default,block1,owen,projective,0,6010,be_right,18,be_right,C,NA,default,24,Yes,NA,Female,English,NA,14
3317,default,block1,josh,projective,0.09,6470,demonstrate,19,demonstrate,C,NA,default,24,Yes,NA,Female,English,NA,15
3317,default,block1,jayden,projective,0.96,4551,announce,20,announce,C,NA,default,24,Yes,NA,Female,English,NA,16
3317,default,block1,ballet,projective,0.97,3301,MC,21,MC,MC,NA,default,24,Yes,NA,Female,English,NA,17
3317,default,block1,josie,projective,0,9530,pretend,22,pretend,C,NA,default,24,Yes,NA,Female,English,NA,18
3317,default,block1,kids,projective,0.99,3089,MC,23,MC,MC,NA,default,24,Yes,NA,Female,English,NA,19
3317,default,block1,emily,projective,0.17,9345,say,24,say,C,NA,default,24,Yes,NA,Female,English,NA,20
3317,default,block1,jackson,projective,0.03,4386,prove,25,prove,C,NA,default,24,Yes,NA,Female,English,NA,21
3317,default,block1,hat,projective,0.98,2921,MC,26,MC,MC,NA,default,24,Yes,NA,Female,English,NA,22
3317,default,block1,danny,projective,0.08,4931,suggest,27,suggest,C,NA,default,24,Yes,NA,Female,English,NA,23
3317,default,block1,zoe,projective,0.98,5904,admit,28,admit,C,NA,default,24,Yes,NA,Female,English,NA,24
3317,default,block1,mary,projective,0.05,3203,establish,29,establish,C,NA,default,24,Yes,NA,Female,English,NA,25
3317,default,block1,charley,projective,0.87,5515,acknowledge,30,acknowledge,C,NA,default,24,Yes,NA,Female,English,NA,26
3317,default,block2,josh,ai,0.78,18462,demonstrate,32,demonstrate,C,NA,default,24,Yes,NA,Female,English,NA,27
3317,default,block2,zoe,ai,0.040000000000000036,8772,admit,33,admit,C,NA,default,24,Yes,NA,Female,English,NA,28
3317,default,block2,jackson,ai,0.040000000000000036,8129,prove,34,prove,C,NA,default,24,Yes,NA,Female,English,NA,29
3317,default,block2,olivia,ai,0.91,7327,think,35,think,C,NA,default,24,Yes,NA,Female,English,NA,30
3317,default,block2,danny,ai,0.96,3706,suggest,36,suggest,C,NA,default,24,Yes,NA,Female,English,NA,31
3317,default,block2,kids,ai,0.040000000000000036,2798,MC,37,MC,MC,NA,default,24,Yes,NA,Female,English,NA,32
3317,default,block2,grace,ai,0.85,7755,confirm,38,confirm,C,NA,default,24,Yes,NA,Female,English,NA,33
3317,default,block2,pizza,ai,0.06999999999999995,2993,MC,39,MC,MC,NA,default,24,Yes,NA,Female,English,NA,34
3317,default,block2,jon,ai,0.040000000000000036,8373,hear,40,hear,C,NA,default,24,Yes,NA,Female,English,NA,35
3317,default,block2,isabella,ai,0.9299999999999999,4478,confess,41,confess,C,NA,default,24,Yes,NA,Female,English,NA,36
3317,default,block2,garage,ai,0.030000000000000027,3318,MC,42,MC,MC,NA,default,24,Yes,NA,Female,English,NA,37
3317,default,block2,ballet,ai,0.020000000000000018,2589,MC,43,MC,MC,NA,default,24,Yes,NA,Female,English,NA,38
3317,default,block2,owen,ai,0.94,5285,be_right,44,be_right,C,NA,default,24,Yes,NA,Female,English,NA,39
3317,default,block2,mary,ai,0.96,6537,establish,45,establish,C,NA,default,24,Yes,NA,Female,English,NA,40
3317,default,block2,josie,ai,0.96,4041,pretend,46,pretend,C,NA,default,24,Yes,NA,Female,English,NA,41
3317,default,block2,sophia,ai,0.020000000000000018,3073,see,47,see,C,NA,default,24,Yes,NA,Female,English,NA,42
3317,default,block2,mia,ai,0.040000000000000036,4204,discover,48,discover,C,NA,default,24,Yes,NA,Female,English,NA,43
3317,default,block2,emma,ai,0.040000000000000036,5948,be_annoyed,49,be_annoyed,C,NA,default,24,Yes,NA,Female,English,NA,44
3317,default,block2,muffins,ai,0.020000000000000018,3570,MC,50,MC,MC,NA,default,24,Yes,NA,Female,English,NA,45
3317,default,block2,jayden,ai,0.020000000000000018,3188,announce,51,announce,C,NA,default,24,Yes,NA,Female,English,NA,46
3317,default,block2,hat,ai,0.040000000000000036,2588,MC,52,MC,MC,NA,default,24,Yes,NA,Female,English,NA,47
3317,default,block2,frank,ai,0.020000000000000018,6618,reveal,53,reveal,C,NA,default,24,Yes,NA,Female,English,NA,48
3317,default,block2,charley,ai,0.030000000000000027,4999,acknowledge,54,acknowledge,C,NA,default,24,Yes,NA,Female,English,NA,49
3317,default,block2,emily,ai,0.87,7624,say,55,say,C,NA,default,24,Yes,NA,Female,English,NA,50
3317,default,block2,julian,ai,0.020000000000000018,4105,inform,56,inform,C,NA,default,24,Yes,NA,Female,English,NA,51
3317,default,block2,tony,ai,0.020000000000000018,3189,know,57,know,C,NA,default,24,Yes,NA,Female,English,NA,52
3240,default,block1,julian,projective,0,14734,be_right,5,be_right,C,NA,default,24,Yes,NA,Female,English,NA,1
3240,default,block1,pizza,projective,0.99,4870,MC,6,MC,MC,NA,default,24,Yes,NA,Female,English,NA,2
3240,default,block1,frank,projective,0.97,5996,confess,7,confess,C,NA,default,24,Yes,NA,Female,English,NA,3
3240,default,block1,josh,projective,0.83,11004,prove,8,prove,C,NA,default,24,Yes,NA,Female,English,NA,4
3240,default,block1,grace,projective,0.48,12445,say,9,say,C,NA,default,24,Yes,NA,Female,English,NA,5
3240,default,block1,tony,projective,0.99,8465,admit,10,admit,C,NA,default,24,Yes,NA,Female,English,NA,6
3240,default,block1,emma,projective,0.74,13733,establish,11,establish,C,NA,default,24,Yes,NA,Female,English,NA,7
3240,default,block1,charley,projective,0.62,13265,confirm,12,confirm,C,NA,default,24,Yes,NA,Female,English,NA,8
3240,default,block1,olivia,projective,0.97,9692,suggest,13,suggest,C,NA,default,24,Yes,NA,Female,English,NA,9
3240,default,block1,owen,projective,0.96,11629,reveal,14,reveal,C,NA,default,24,Yes,NA,Female,English,NA,10
3240,default,block1,isabella,projective,0.31,9248,think,15,think,C,NA,default,24,Yes,NA,Female,English,NA,11
3240,default,block1,danny,projective,1,8137,discover,16,discover,C,NA,default,24,Yes,NA,Female,English,NA,12
3240,default,block1,mary,projective,0.98,5881,be_annoyed,17,be_annoyed,C,NA,default,24,Yes,NA,Female,English,NA,13
3240,default,block1,josie,projective,0.98,6211,demonstrate,18,demonstrate,C,NA,default,24,Yes,NA,Female,English,NA,14
3240,default,block1,jackson,projective,0.98,8988,inform,19,inform,C,NA,default,24,Yes,NA,Female,English,NA,15
3240,default,block1,jon,projective,1,8091,know,20,know,C,NA,default,24,Yes,NA,Female,English,NA,16
3240,default,block1,ballet,projective,0.99,7100,MC,21,MC,MC,NA,default,24,Yes,NA,Female,English,NA,17
3240,default,block1,sophia,projective,0.98,6066,hear,22,hear,C,NA,default,24,Yes,NA,Female,English,NA,18
3240,default,block1,muffins,projective,0.99,5631,MC,23,MC,MC,NA,default,24,Yes,NA,Female,English,NA,19
3240,default,block1,mia,projective,0.19,8173,pretend,24,pretend,C,NA,default,24,Yes,NA,Female,English,NA,20
3240,default,block1,emily,projective,0.97,5586,see,25,see,C,NA,default,24,Yes,NA,Female,English,NA,21
3240,default,block1,zoe,projective,0.99,12166,acknowledge,26,acknowledge,C,NA,default,24,Yes,NA,Female,English,NA,22
3240,default,block1,garage,projective,0.99,10897,MC,27,MC,MC,NA,default,24,Yes,NA,Female,English,NA,23
3240,default,block1,jayden,projective,0.98,7352,announce,28,announce,C,NA,default,24,Yes,NA,Female,English,NA,24
3240,default,block1,hat,projective,0.98,4973,MC,29,MC,MC,NA,default,24,Yes,NA,Female,English,NA,25
3240,default,block1,kids,projective,0.98,5411,MC,30,MC,MC,NA,default,24,Yes,NA,Female,English,NA,26
3240,default,block2,mia,ai,0.98,16661,pretend,32,pretend,C,NA,default,24,Yes,NA,Female,English,NA,27
3240,default,block2,hat,ai,0.010000000000000009,3802,MC,33,MC,MC,NA,default,24,Yes,NA,Female,English,NA,28
3240,default,block2,charley,ai,0.99,5577,confirm,34,confirm,C,NA,default,24,Yes,NA,Female,English,NA,29
3240,default,block2,olivia,ai,0.26,8655,suggest,35,suggest,C,NA,default,24,Yes,NA,Female,English,NA,30
3240,default,block2,tony,ai,0.73,44190,admit,36,admit,C,NA,default,24,Yes,NA,Female,English,NA,31
3240,default,block2,emily,ai,1,6972,see,37,see,C,NA,default,24,Yes,NA,Female,English,NA,32
3240,default,block2,grace,ai,0.99,11269,say,38,say,C,NA,default,24,Yes,NA,Female,English,NA,33
3240,default,block2,pizza,ai,0.020000000000000018,5642,MC,39,MC,MC,NA,default,24,Yes,NA,Female,English,NA,34
3240,default,block2,owen,ai,0.99,5342,reveal,40,reveal,C,NA,default,24,Yes,NA,Female,English,NA,35
3240,default,block2,emma,ai,0.30000000000000004,5237,establish,41,establish,C,NA,default,24,Yes,NA,Female,English,NA,36
3240,default,block2,sophia,ai,0.99,5450,hear,42,hear,C,NA,default,24,Yes,NA,Female,English,NA,37
3240,default,block2,mary,ai,0.26,4962,be_annoyed,43,be_annoyed,C,NA,default,24,Yes,NA,Female,English,NA,38
3240,default,block2,jackson,ai,0.41000000000000003,8454,inform,44,inform,C,NA,default,24,Yes,NA,Female,English,NA,39
3240,default,block2,isabella,ai,0.99,6987,think,45,think,C,NA,default,24,Yes,NA,Female,English,NA,40
3240,default,block2,danny,ai,0.89,54044,discover,46,discover,C,NA,default,24,Yes,NA,Female,English,NA,41
3240,default,block2,josie,ai,0.6699999999999999,7572,demonstrate,47,demonstrate,C,NA,default,24,Yes,NA,Female,English,NA,42
3240,default,block2,kids,ai,0.020000000000000018,5968,MC,48,MC,MC,NA,default,24,Yes,NA,Female,English,NA,43
3240,default,block2,julian,ai,0.31000000000000005,5582,be_right,49,be_right,C,NA,default,24,Yes,NA,Female,English,NA,44
3240,default,block2,jayden,ai,0.8,4610,announce,50,announce,C,NA,default,24,Yes,NA,Female,English,NA,45
3240,default,block2,jon,ai,0.31000000000000005,4601,know,51,know,C,NA,default,24,Yes,NA,Female,English,NA,46
3240,default,block2,josh,ai,0.43999999999999995,9011,prove,52,prove,C,NA,default,24,Yes,NA,Female,English,NA,47
3240,default,block2,frank,ai,0.98,8060,confess,53,confess,C,NA,default,24,Yes,NA,Female,English,NA,48
3240,default,block2,zoe,ai,1,8604,acknowledge,54,acknowledge,C,NA,default,24,Yes,NA,Female,English,NA,49
3240,default,block2,muffins,ai,0.020000000000000018,3954,MC,55,MC,MC,NA,default,24,Yes,NA,Female,English,NA,50
3240,default,block2,garage,ai,0.010000000000000009,4016,MC,56,MC,MC,NA,default,24,Yes,NA,Female,English,NA,51
3240,default,block2,ballet,ai,0.010000000000000009,3177,MC,57,MC,MC,NA,default,24,Yes,NA,Female,English,NA,52
3222,default,block1,danny,ai,0.21999999999999997,9006,suggest,5,suggest,C,NA,default,22,Yes,NA,Female,ENGLISH,NA,1
3222,default,block1,zoe,ai,0.14,5500,acknowledge,6,acknowledge,C,NA,default,22,Yes,NA,Female,ENGLISH,NA,2
3222,default,block1,josh,ai,0.28,6910,announce,7,announce,C,NA,default,22,Yes,NA,Female,ENGLISH,NA,3
3222,default,block1,garage,ai,0.22999999999999998,5726,MC,8,MC,MC,NA,default,22,Yes,NA,Female,ENGLISH,NA,4
3222,default,block1,jon,ai,0.37,5158,see,9,see,C,NA,default,22,Yes,NA,Female,ENGLISH,NA,5
3222,default,block1,kids,ai,0.19999999999999996,6034,MC,10,MC,MC,NA,default,22,Yes,NA,Female,ENGLISH,NA,6
3222,default,block1,grace,ai,0.38,5102,demonstrate,11,demonstrate,C,NA,default,22,Yes,NA,Female,ENGLISH,NA,7
3222,default,block1,muffins,ai,0.21999999999999997,3626,MC,12,MC,MC,NA,default,22,Yes,NA,Female,ENGLISH,NA,8
3222,default,block1,charley,ai,0.31999999999999995,5053,know,13,know,C,NA,default,22,Yes,NA,Female,ENGLISH,NA,9
3222,default,block1,pizza,ai,0.24,5264,MC,14,MC,MC,NA,default,22,Yes,NA,Female,ENGLISH,NA,10
3222,default,block1,mia,ai,0.32999999999999996,7072,be_annoyed,15,be_annoyed,C,NA,default,22,Yes,NA,Female,ENGLISH,NA,11
3222,default,block1,emily,ai,0.28,4112,establish,16,establish,C,NA,default,22,Yes,NA,Female,ENGLISH,NA,12
3222,default,block1,julian,ai,0.30000000000000004,4404,inform,17,inform,C,NA,default,22,Yes,NA,Female,ENGLISH,NA,13
3222,default,block1,tony,ai,0.27,2990,admit,18,admit,C,NA,default,22,Yes,NA,Female,ENGLISH,NA,14
3222,default,block1,mary,ai,0.27,2726,reveal,19,reveal,C,NA,default,22,Yes,NA,Female,ENGLISH,NA,15
3222,default,block1,emma,ai,0.36,4284,discover,20,discover,C,NA,default,22,Yes,NA,Female,ENGLISH,NA,16
3222,default,block1,owen,ai,0.29000000000000004,4111,be_right,21,be_right,C,NA,default,22,Yes,NA,Female,ENGLISH,NA,17
3222,default,block1,jackson,ai,0.24,6036,prove,22,prove,C,NA,default,22,Yes,NA,Female,ENGLISH,NA,18
3222,default,block1,hat,ai,0.26,3737,MC,23,MC,MC,NA,default,22,Yes,NA,Female,ENGLISH,NA,19
3222,default,block1,isabella,ai,0.24,4123,confirm,24,confirm,C,NA,default,22,Yes,NA,Female,ENGLISH,NA,20
3222,default,block1,sophia,ai,0.32999999999999996,4110,say,25,say,C,NA,default,22,Yes,NA,Female,ENGLISH,NA,21
3222,default,block1,frank,ai,0.24,3608,hear,26,hear,C,NA,default,22,Yes,NA,Female,ENGLISH,NA,22
3222,default,block1,ballet,ai,0.020000000000000018,3068,MC,27,MC,MC,NA,default,22,Yes,NA,Female,ENGLISH,NA,23
3222,default,block1,olivia,ai,0.18999999999999995,3156,confess,28,confess,C,NA,default,22,Yes,NA,Female,ENGLISH,NA,24
3222,default,block1,josie,ai,0.69,6003,pretend,29,pretend,C,NA,default,22,Yes,NA,Female,ENGLISH,NA,25
3222,default,block1,jayden,ai,0.30000000000000004,3543,think,30,think,C,NA,default,22,Yes,NA,Female,ENGLISH,NA,26
3222,default,block2,sophia,projective,0.62,7943,say,32,say,C,NA,default,22,Yes,NA,Female,ENGLISH,NA,27
3222,default,block2,garage,projective,0.97,3337,MC,33,MC,MC,NA,default,22,Yes,NA,Female,ENGLISH,NA,28
3222,default,block2,mia,projective,0.34,4144,be_annoyed,34,be_annoyed,C,NA,default,22,Yes,NA,Female,ENGLISH,NA,29
3222,default,block2,grace,projective,0.6,7585,demonstrate,35,demonstrate,C,NA,default,22,Yes,NA,Female,ENGLISH,NA,30
3222,default,block2,pizza,projective,1,2847,MC,36,MC,MC,NA,default,22,Yes,NA,Female,ENGLISH,NA,31
3222,default,block2,jayden,projective,0.49,5547,think,37,think,C,NA,default,22,Yes,NA,Female,ENGLISH,NA,32
3222,default,block2,owen,projective,0.34,5576,be_right,38,be_right,C,NA,default,22,Yes,NA,Female,ENGLISH,NA,33
3222,default,block2,olivia,projective,0.62,3554,confess,39,confess,C,NA,default,22,Yes,NA,Female,ENGLISH,NA,34
3222,default,block2,jon,projective,0.98,3924,see,40,see,C,NA,default,22,Yes,NA,Female,ENGLISH,NA,35
3222,default,block2,julian,projective,0.75,3317,inform,41,inform,C,NA,default,22,Yes,NA,Female,ENGLISH,NA,36
3222,default,block2,josie,projective,0.21,5128,pretend,42,pretend,C,NA,default,22,Yes,NA,Female,ENGLISH,NA,37
3222,default,block2,hat,projective,1,2482,MC,43,MC,MC,NA,default,22,Yes,NA,Female,ENGLISH,NA,38
3222,default,block2,danny,projective,0.31,3763,suggest,44,suggest,C,NA,default,22,Yes,NA,Female,ENGLISH,NA,39
3222,default,block2,isabella,projective,0.39,3537,confirm,45,confirm,C,NA,default,22,Yes,NA,Female,ENGLISH,NA,40
3222,default,block2,mary,projective,0.71,4461,reveal,46,reveal,C,NA,default,22,Yes,NA,Female,ENGLISH,NA,41
3222,default,block2,frank,projective,0.88,4509,hear,47,hear,C,NA,default,22,Yes,NA,Female,ENGLISH,NA,42
3222,default,block2,zoe,projective,0.65,3859,acknowledge,48,acknowledge,C,NA,default,22,Yes,NA,Female,ENGLISH,NA,43
3222,default,block2,tony,projective,0.49,2728,admit,49,admit,C,NA,default,22,Yes,NA,Female,ENGLISH,NA,44
3222,default,block2,emma,projective,0.69,2741,discover,50,discover,C,NA,default,22,Yes,NA,Female,ENGLISH,NA,45
3222,default,block2,josh,projective,0.68,2741,announce,51,announce,C,NA,default,22,Yes,NA,Female,ENGLISH,NA,46
3222,default,block2,ballet,projective,1,2498,MC,52,MC,MC,NA,default,22,Yes,NA,Female,ENGLISH,NA,47
3222,default,block2,charley,projective,0.75,2344,know,53,know,C,NA,default,22,Yes,NA,Female,ENGLISH,NA,48
3222,default,block2,emily,projective,0.59,3836,establish,54,establish,C,NA,default,22,Yes,NA,Female,ENGLISH,NA,49
3222,default,block2,muffins,projective,1,2191,MC,55,MC,MC,NA,default,22,Yes,NA,Female,ENGLISH,NA,50
3222,default,block2,jackson,projective,0.55,3081,prove,56,prove,C,NA,default,22,Yes,NA,Female,ENGLISH,NA,51
3222,default,block2,kids,projective,1,2199,MC,57,MC,MC,NA,default,22,Yes,NA,Female,ENGLISH,NA,52
3260,default,block1,mary,ai,0.91,12650,prove,5,prove,C,NA,default,24,Yes,NA,Female,English,NA,1
3260,default,block1,zoe,ai,0.52,11140,acknowledge,6,acknowledge,C,NA,default,24,Yes,NA,Female,English,NA,2
3260,default,block1,emily,ai,0.6599999999999999,7524,demonstrate,7,demonstrate,C,NA,default,24,Yes,NA,Female,English,NA,3
3260,default,block1,isabella,ai,0.72,6532,establish,8,establish,C,NA,default,24,Yes,NA,Female,English,NA,4
3260,default,block1,tony,ai,0.69,5451,think,9,think,C,NA,default,24,Yes,NA,Female,English,NA,5
3260,default,block1,olivia,ai,0.6599999999999999,8011,announce,10,announce,C,NA,default,24,Yes,NA,Female,English,NA,6
3260,default,block1,jon,ai,0.63,8829,confirm,11,confirm,C,NA,default,24,Yes,NA,Female,English,NA,7
3260,default,block1,frank,ai,0.61,7391,reveal,12,reveal,C,NA,default,24,Yes,NA,Female,English,NA,8
3260,default,block1,julian,ai,0.6699999999999999,8475,be_annoyed,13,be_annoyed,C,NA,default,24,Yes,NA,Female,English,NA,9
3260,default,block1,owen,ai,0.62,7900,be_right,14,be_right,C,NA,default,24,Yes,NA,Female,English,NA,10
3260,default,block1,kids,ai,0.26,10902,MC,15,MC,MC,NA,default,24,Yes,NA,Female,English,NA,11
3260,default,block1,charley,ai,0.5800000000000001,5980,discover,16,discover,C,NA,default,24,Yes,NA,Female,English,NA,12
3260,default,block1,jackson,ai,0.61,8759,inform,17,inform,C,NA,default,24,Yes,NA,Female,English,NA,13
3260,default,block1,garage,ai,0.32999999999999996,6461,MC,18,MC,MC,NA,default,24,Yes,NA,Female,English,NA,14
3260,default,block1,grace,ai,0.64,5255,confess,19,confess,C,NA,default,24,Yes,NA,Female,English,NA,15
3260,default,block1,emma,ai,0.5800000000000001,7089,say,20,say,C,NA,default,24,Yes,NA,Female,English,NA,16
3260,default,block1,ballet,ai,0.33999999999999997,6171,MC,21,MC,MC,NA,default,24,Yes,NA,Female,English,NA,17
3260,default,block1,jayden,ai,0.63,5744,see,22,see,C,NA,default,24,Yes,NA,Female,English,NA,18
3260,default,block1,hat,ai,0.35,4840,MC,23,MC,MC,NA,default,24,Yes,NA,Female,English,NA,19
3260,default,block1,josie,ai,0.64,5518,pretend,24,pretend,C,NA,default,24,Yes,NA,Female,English,NA,20
3260,default,block1,josh,ai,0.75,6386,hear,25,hear,C,NA,default,24,Yes,NA,Female,English,NA,21
3260,default,block1,pizza,ai,0.38,6768,MC,26,MC,MC,NA,default,24,Yes,NA,Female,English,NA,22
3260,default,block1,mia,ai,0.7,4788,admit,27,admit,C,NA,default,24,Yes,NA,Female,English,NA,23
3260,default,block1,sophia,ai,0.69,6181,suggest,28,suggest,C,NA,default,24,Yes,NA,Female,English,NA,24
3260,default,block1,muffins,ai,0.20999999999999996,5670,MC,29,MC,MC,NA,default,24,Yes,NA,Female,English,NA,25
3260,default,block1,danny,ai,0.69,6282,know,30,know,C,NA,default,24,Yes,NA,Female,English,NA,26
3260,default,block2,pizza,projective,0.98,8801,MC,32,MC,MC,NA,default,24,Yes,NA,Female,English,NA,27
3260,default,block2,tony,projective,0.37,6021,think,33,think,C,NA,default,24,Yes,NA,Female,English,NA,28
3260,default,block2,zoe,projective,0.36,4248,acknowledge,34,acknowledge,C,NA,default,24,Yes,NA,Female,English,NA,29
3260,default,block2,garage,projective,0.99,4615,MC,35,MC,MC,NA,default,24,Yes,NA,Female,English,NA,30
3260,default,block2,mary,projective,0.34,3405,prove,36,prove,C,NA,default,24,Yes,NA,Female,English,NA,31
3260,default,block2,muffins,projective,0.99,4716,MC,37,MC,MC,NA,default,24,Yes,NA,Female,English,NA,32
3260,default,block2,josie,projective,0.31,8643,pretend,38,pretend,C,NA,default,24,Yes,NA,Female,English,NA,33
3260,default,block2,emily,projective,0.24,7017,demonstrate,39,demonstrate,C,NA,default,24,Yes,NA,Female,English,NA,34
3260,default,block2,emma,projective,0.27,5258,say,40,say,C,NA,default,24,Yes,NA,Female,English,NA,35
3260,default,block2,jackson,projective,0.21,4718,inform,41,inform,C,NA,default,24,Yes,NA,Female,English,NA,36
3260,default,block2,jon,projective,0.17,7059,confirm,42,confirm,C,NA,default,24,Yes,NA,Female,English,NA,37
3260,default,block2,grace,projective,0.63,7925,confess,43,confess,C,NA,default,24,Yes,NA,Female,English,NA,38
3260,default,block2,josh,projective,0.75,5414,hear,44,hear,C,NA,default,24,Yes,NA,Female,English,NA,39
3260,default,block2,sophia,projective,0.17,4662,suggest,45,suggest,C,NA,default,24,Yes,NA,Female,English,NA,40
3260,default,block2,kids,projective,0.99,4280,MC,46,MC,MC,NA,default,24,Yes,NA,Female,English,NA,41
3260,default,block2,owen,projective,0.24,4980,be_right,47,be_right,C,NA,default,24,Yes,NA,Female,English,NA,42
3260,default,block2,charley,projective,0.6,7482,discover,48,discover,C,NA,default,24,Yes,NA,Female,English,NA,43
3260,default,block2,olivia,projective,0.26,6009,announce,49,announce,C,NA,default,24,Yes,NA,Female,English,NA,44
3260,default,block2,ballet,projective,1,3959,MC,50,MC,MC,NA,default,24,Yes,NA,Female,English,NA,45
3260,default,block2,isabella,projective,0.28,5456,establish,51,establish,C,NA,default,24,Yes,NA,Female,English,NA,46
3260,default,block2,frank,projective,0.87,4300,reveal,52,reveal,C,NA,default,24,Yes,NA,Female,English,NA,47
3260,default,block2,julian,projective,1,7568,be_annoyed,53,be_annoyed,C,NA,default,24,Yes,NA,Female,English,NA,48
3260,default,block2,danny,projective,0.58,7434,know,54,know,C,NA,default,24,Yes,NA,Female,English,NA,49
3260,default,block2,jayden,projective,0.46,5230,see,55,see,C,NA,default,24,Yes,NA,Female,English,NA,50
3260,default,block2,hat,projective,1,6882,MC,56,MC,MC,NA,default,24,Yes,NA,Female,English,NA,51
3260,default,block2,mia,projective,0.57,5219,admit,57,admit,C,NA,default,24,Yes,NA,Female,English,NA,52
3205,default,block1,sophia,ai,0.6699999999999999,16177,see,5,see,C,NA,default,21,Yes,NA,Female,english,NA,1
3205,default,block1,isabella,ai,0.5900000000000001,9971,demonstrate,6,demonstrate,C,NA,default,21,Yes,NA,Female,english,NA,2
3205,default,block1,mary,ai,0.47,8965,be_right,7,be_right,C,NA,default,21,Yes,NA,Female,english,NA,3
3205,default,block1,charley,ai,0.48,7645,acknowledge,8,acknowledge,C,NA,default,21,Yes,NA,Female,english,NA,4
3205,default,block1,danny,ai,0.38,10511,pretend,9,pretend,C,NA,default,21,Yes,NA,Female,english,NA,5
3205,default,block1,emily,ai,0.6,8562,announce,10,announce,C,NA,default,21,Yes,NA,Female,english,NA,6
3205,default,block1,tony,ai,0.39,7730,prove,11,prove,C,NA,default,21,Yes,NA,Female,english,NA,7
3205,default,block1,jackson,ai,0.6,5991,say,12,say,C,NA,default,21,Yes,NA,Female,english,NA,8
3205,default,block1,jayden,ai,0.65,6671,think,13,think,C,NA,default,21,Yes,NA,Female,english,NA,9
3205,default,block1,garage,ai,0.6699999999999999,6217,MC,14,MC,MC,NA,default,21,Yes,NA,Female,english,NA,10
3205,default,block1,hat,ai,0.71,4466,MC,15,MC,MC,NA,default,21,Yes,NA,Female,english,NA,11
3205,default,block1,zoe,ai,0.42000000000000004,10757,reveal,16,reveal,C,NA,default,21,Yes,NA,Female,english,NA,12
3205,default,block1,pizza,ai,0.63,5336,MC,17,MC,MC,NA,default,21,Yes,NA,Female,english,NA,13
3205,default,block1,julian,ai,0.41000000000000003,9146,confirm,18,confirm,C,NA,default,21,Yes,NA,Female,english,NA,14
3205,default,block1,mia,ai,0.6599999999999999,8248,know,19,know,C,NA,default,21,Yes,NA,Female,english,NA,15
3205,default,block1,josie,ai,0.38,9169,confess,20,confess,C,NA,default,21,Yes,NA,Female,english,NA,16
3205,default,block1,owen,ai,0.4,7657,suggest,21,suggest,C,NA,default,21,Yes,NA,Female,english,NA,17
3205,default,block1,olivia,ai,0.35,8265,admit,22,admit,C,NA,default,21,Yes,NA,Female,english,NA,18
3205,default,block1,ballet,ai,0.41000000000000003,6597,MC,23,MC,MC,NA,default,21,Yes,NA,Female,english,NA,19
3205,default,block1,emma,ai,0.38,6760,establish,24,establish,C,NA,default,21,Yes,NA,Female,english,NA,20
3205,default,block1,grace,ai,0.33999999999999997,7210,inform,25,inform,C,NA,default,21,Yes,NA,Female,english,NA,21
3205,default,block1,jon,ai,0.4,6890,hear,26,hear,C,NA,default,21,Yes,NA,Female,english,NA,22
3205,default,block1,josh,ai,0.37,4673,discover,27,discover,C,NA,default,21,Yes,NA,Female,english,NA,23
3205,default,block1,muffins,ai,0.24,4108,MC,28,MC,MC,NA,default,21,Yes,NA,Female,english,NA,24
3205,default,block1,frank,ai,0.6,7132,be_annoyed,29,be_annoyed,C,NA,default,21,Yes,NA,Female,english,NA,25
3205,default,block1,kids,ai,0.30000000000000004,10187,MC,30,MC,MC,NA,default,21,Yes,NA,Female,english,NA,26
3205,default,block2,pizza,projective,0.96,9216,MC,32,MC,MC,NA,default,21,Yes,NA,Female,english,NA,27
3205,default,block2,josie,projective,0.38,10820,confess,33,confess,C,NA,default,21,Yes,NA,Female,english,NA,28
3205,default,block2,garage,projective,0.96,6468,MC,34,MC,MC,NA,default,21,Yes,NA,Female,english,NA,29
3205,default,block2,emma,projective,0.45,6340,establish,35,establish,C,NA,default,21,Yes,NA,Female,english,NA,30
3205,default,block2,muffins,projective,0.99,3565,MC,36,MC,MC,NA,default,21,Yes,NA,Female,english,NA,31
3205,default,block2,kids,projective,0.98,4221,MC,37,MC,MC,NA,default,21,Yes,NA,Female,english,NA,32
3205,default,block2,tony,projective,0.69,8215,prove,38,prove,C,NA,default,21,Yes,NA,Female,english,NA,33
3205,default,block2,jayden,projective,0.4,13006,think,39,think,C,NA,default,21,Yes,NA,Female,english,NA,34
3205,default,block2,mia,projective,0.67,6077,know,40,know,C,NA,default,21,Yes,NA,Female,english,NA,35
3205,default,block2,zoe,projective,0.79,4424,reveal,41,reveal,C,NA,default,21,Yes,NA,Female,english,NA,36
3205,default,block2,mary,projective,0.19,8231,be_right,42,be_right,C,NA,default,21,Yes,NA,Female,english,NA,37
3205,default,block2,jackson,projective,0.32,4535,say,43,say,C,NA,default,21,Yes,NA,Female,english,NA,38
3205,default,block2,hat,projective,0.88,4052,MC,44,MC,MC,NA,default,21,Yes,NA,Female,english,NA,39
3205,default,block2,ballet,projective,0.95,2934,MC,45,MC,MC,NA,default,21,Yes,NA,Female,english,NA,40
3205,default,block2,danny,projective,0.08,6040,pretend,46,pretend,C,NA,default,21,Yes,NA,Female,english,NA,41
3205,default,block2,olivia,projective,0.51,7550,admit,47,admit,C,NA,default,21,Yes,NA,Female,english,NA,42
3205,default,block2,isabella,projective,0.29,7698,demonstrate,48,demonstrate,C,NA,default,21,Yes,NA,Female,english,NA,43
3205,default,block2,emily,projective,0.63,5949,announce,49,announce,C,NA,default,21,Yes,NA,Female,english,NA,44
3205,default,block2,charley,projective,0.67,3987,acknowledge,50,acknowledge,C,NA,default,21,Yes,NA,Female,english,NA,45
3205,default,block2,grace,projective,0.65,4228,inform,51,inform,C,NA,default,21,Yes,NA,Female,english,NA,46
3205,default,block2,sophia,projective,0.92,5191,see,52,see,C,NA,default,21,Yes,NA,Female,english,NA,47
3205,default,block2,julian,projective,0.63,12629,confirm,53,confirm,C,NA,default,21,Yes,NA,Female,english,NA,48
3205,default,block2,frank,projective,0.85,8247,be_annoyed,54,be_annoyed,C,NA,default,21,Yes,NA,Female,english,NA,49
3205,default,block2,josh,projective,0.76,10624,discover,55,discover,C,NA,default,21,Yes,NA,Female,english,NA,50
3205,default,block2,jon,projective,0.84,5222,hear,56,hear,C,NA,default,21,Yes,NA,Female,english,NA,51
3205,default,block2,owen,projective,0.25,4198,suggest,57,suggest,C,NA,default,21,Yes,NA,Female,english,NA,52
3111,default,block1,tony,projective,0.19,19300,think,5,think,C,NA,default,25,Yes,NA,Female,English,NA,1
3111,default,block1,muffins,projective,0.98,7771,MC,6,MC,MC,NA,default,25,Yes,NA,Female,English,NA,2
3111,default,block1,ballet,projective,0.95,6027,MC,7,MC,MC,NA,default,25,Yes,NA,Female,English,NA,3
3111,default,block1,hat,projective,0.98,8968,MC,8,MC,MC,NA,default,25,Yes,NA,Female,English,NA,4
3111,default,block1,jon,projective,0.28,15950,announce,9,announce,C,NA,default,25,Yes,NA,Female,English,NA,5
3111,default,block1,kids,projective,0.98,7924,MC,10,MC,MC,NA,default,25,Yes,NA,Female,English,NA,6
3111,default,block1,pizza,projective,0.97,172092,MC,11,MC,MC,NA,default,25,Yes,NA,Female,English,NA,7
3111,default,block1,emily,projective,0.27,8396,be_right,12,be_right,C,NA,default,25,Yes,NA,Female,English,NA,8
3111,default,block1,josh,projective,0.27,9734,establish,13,establish,C,NA,default,25,Yes,NA,Female,English,NA,9
3111,default,block1,mary,projective,0.56,11903,acknowledge,14,acknowledge,C,NA,default,25,Yes,NA,Female,English,NA,10
3111,default,block1,isabella,projective,0.65,7770,confirm,15,confirm,C,NA,default,25,Yes,NA,Female,English,NA,11
3111,default,block1,sophia,projective,0.55,8132,suggest,16,suggest,C,NA,default,25,Yes,NA,Female,English,NA,12
3111,default,block1,emma,projective,0.28,8126,say,17,say,C,NA,default,25,Yes,NA,Female,English,NA,13
3111,default,block1,frank,projective,0.65,6208,know,18,know,C,NA,default,25,Yes,NA,Female,English,NA,14
3111,default,block1,owen,projective,0.55,10439,demonstrate,19,demonstrate,C,NA,default,25,Yes,NA,Female,English,NA,15
3111,default,block1,julian,projective,0.1,8660,pretend,20,pretend,C,NA,default,25,Yes,NA,Female,English,NA,16
3111,default,block1,danny,projective,0.61,7725,admit,21,admit,C,NA,default,25,Yes,NA,Female,English,NA,17
3111,default,block1,olivia,projective,0.98,5607,see,22,see,C,NA,default,25,Yes,NA,Female,English,NA,18
3111,default,block1,josie,projective,0.78,8000,inform,23,inform,C,NA,default,25,Yes,NA,Female,English,NA,19
3111,default,block1,jackson,projective,0.76,5487,discover,24,discover,C,NA,default,25,Yes,NA,Female,English,NA,20
3111,default,block1,charley,projective,0.8,4004,hear,25,hear,C,NA,default,25,Yes,NA,Female,English,NA,21
3111,default,block1,mia,projective,0.8,4684,confess,26,confess,C,NA,default,25,Yes,NA,Female,English,NA,22
3111,default,block1,jayden,projective,0.79,3974,prove,27,prove,C,NA,default,25,Yes,NA,Female,English,NA,23
3111,default,block1,zoe,projective,0.71,3698,reveal,28,reveal,C,NA,default,25,Yes,NA,Female,English,NA,24
3111,default,block1,garage,projective,0.98,4956,MC,29,MC,MC,NA,default,25,Yes,NA,Female,English,NA,25
3111,default,block1,grace,projective,0.95,9961,be_annoyed,30,be_annoyed,C,NA,default,25,Yes,NA,Female,English,NA,26
3111,default,block2,muffins,ai,0.010000000000000009,8959,MC,32,MC,MC,NA,default,25,Yes,NA,Female,English,NA,27
3111,default,block2,zoe,ai,0.31000000000000005,7404,reveal,33,reveal,C,NA,default,25,Yes,NA,Female,English,NA,28
3111,default,block2,mary,ai,0.4,10156,acknowledge,34,acknowledge,C,NA,default,25,Yes,NA,Female,English,NA,29
3111,default,block2,charley,ai,0.53,243572,hear,35,hear,C,NA,default,25,Yes,NA,Female,English,NA,30
3111,default,block2,jackson,ai,0.26,4920,discover,36,discover,C,NA,default,25,Yes,NA,Female,English,NA,31
3111,default,block2,garage,ai,0.09999999999999998,4908,MC,37,MC,MC,NA,default,25,Yes,NA,Female,English,NA,32
3111,default,block2,jon,ai,0.42000000000000004,5506,announce,38,announce,C,NA,default,25,Yes,NA,Female,English,NA,33
3111,default,block2,frank,ai,0.4,4343,know,39,know,C,NA,default,25,Yes,NA,Female,English,NA,34
3111,default,block2,josh,ai,0.24,8585,establish,40,establish,C,NA,default,25,Yes,NA,Female,English,NA,35
3111,default,block2,tony,ai,0.19999999999999996,3158,think,41,think,C,NA,default,25,Yes,NA,Female,English,NA,36
3111,default,block2,kids,ai,0.020000000000000018,3520,MC,42,MC,MC,NA,default,25,Yes,NA,Female,English,NA,37
3111,default,block2,sophia,ai,0.22999999999999998,2947,suggest,43,suggest,C,NA,default,25,Yes,NA,Female,English,NA,38
3111,default,block2,jayden,ai,0.29000000000000004,3676,prove,44,prove,C,NA,default,25,Yes,NA,Female,English,NA,39
3111,default,block2,isabella,ai,0.43999999999999995,3041,confirm,45,confirm,C,NA,default,25,Yes,NA,Female,English,NA,40
3111,default,block2,danny,ai,0.51,3311,admit,46,admit,C,NA,default,25,Yes,NA,Female,English,NA,41
3111,default,block2,emily,ai,0.24,3222,be_right,47,be_right,C,NA,default,25,Yes,NA,Female,English,NA,42
3111,default,block2,emma,ai,0.31999999999999995,7338,say,48,say,C,NA,default,25,Yes,NA,Female,English,NA,43
3111,default,block2,owen,ai,0.26,4533,demonstrate,49,demonstrate,C,NA,default,25,Yes,NA,Female,English,NA,44
3111,default,block2,pizza,ai,0.020000000000000018,3156,MC,50,MC,MC,NA,default,25,Yes,NA,Female,English,NA,45
3111,default,block2,grace,ai,0.8200000000000001,9078,be_annoyed,51,be_annoyed,C,NA,default,25,Yes,NA,Female,English,NA,46
3111,default,block2,julian,ai,0.77,6956,pretend,52,pretend,C,NA,default,25,Yes,NA,Female,English,NA,47
3111,default,block2,ballet,ai,0.10999999999999999,3891,MC,53,MC,MC,NA,default,25,Yes,NA,Female,English,NA,48
3111,default,block2,mia,ai,0.30000000000000004,5300,confess,54,confess,C,NA,default,25,Yes,NA,Female,English,NA,49
3111,default,block2,olivia,ai,0.48,5112,see,55,see,C,NA,default,25,Yes,NA,Female,English,NA,50
3111,default,block2,hat,ai,0.050000000000000044,2637,MC,56,MC,MC,NA,default,25,Yes,NA,Female,English,NA,51
3111,default,block2,josie,ai,0.45999999999999996,5695,inform,57,inform,C,NA,default,25,Yes,NA,Female,English,NA,52
3320,default,block1,sophia,projective,1,14660,confess,5,confess,C,NA,default,38,Yes,NA,Male,English,NA,1
3320,default,block1,garage,projective,1,6753,MC,6,MC,MC,NA,default,38,Yes,NA,Male,English,NA,2
3320,default,block1,josh,projective,1,7817,know,7,know,C,NA,default,38,Yes,NA,Male,English,NA,3
3320,default,block1,hat,projective,1,4473,MC,8,MC,MC,NA,default,38,Yes,NA,Male,English,NA,4
3320,default,block1,zoe,projective,1,8667,acknowledge,9,acknowledge,C,NA,default,38,Yes,NA,Male,English,NA,5
3320,default,block1,frank,projective,0.49,11054,say,10,say,C,NA,default,38,Yes,NA,Male,English,NA,6
3320,default,block1,isabella,projective,0.73,11823,announce,11,announce,C,NA,default,38,Yes,NA,Male,English,NA,7
3320,default,block1,jackson,projective,1,10426,be_annoyed,12,be_annoyed,C,NA,default,38,Yes,NA,Male,English,NA,8
3320,default,block1,jayden,projective,0.5,9561,establish,13,establish,C,NA,default,38,Yes,NA,Male,English,NA,9
3320,default,block1,grace,projective,0,8549,pretend,14,pretend,C,NA,default,38,Yes,NA,Male,English,NA,10
3320,default,block1,olivia,projective,1,8654,discover,15,discover,C,NA,default,38,Yes,NA,Male,English,NA,11
3320,default,block1,mary,projective,0.5,8692,prove,16,prove,C,NA,default,38,Yes,NA,Male,English,NA,12
3320,default,block1,emma,projective,0.01,8738,think,17,think,C,NA,default,38,Yes,NA,Male,English,NA,13
3320,default,block1,jon,projective,1,8146,see,18,see,C,NA,default,38,Yes,NA,Male,English,NA,14
3320,default,block1,charley,projective,1,6075,reveal,19,reveal,C,NA,default,38,Yes,NA,Male,English,NA,15
3320,default,block1,josie,projective,1,9825,admit,20,admit,C,NA,default,38,Yes,NA,Male,English,NA,16
3320,default,block1,pizza,projective,1,5331,MC,21,MC,MC,NA,default,38,Yes,NA,Male,English,NA,17
3320,default,block1,emily,projective,1,5295,inform,22,inform,C,NA,default,38,Yes,NA,Male,English,NA,18
3320,default,block1,muffins,projective,1,5429,MC,23,MC,MC,NA,default,38,Yes,NA,Male,English,NA,19
3320,default,block1,kids,projective,1,3697,MC,24,MC,MC,NA,default,38,Yes,NA,Male,English,NA,20
3320,default,block1,tony,projective,0,9444,be_right,25,be_right,C,NA,default,38,Yes,NA,Male,English,NA,21
3320,default,block1,mia,projective,0.5,11418,demonstrate,26,demonstrate,C,NA,default,38,Yes,NA,Male,English,NA,22
3320,default,block1,danny,projective,0.51,8617,confirm,27,confirm,C,NA,default,38,Yes,NA,Male,English,NA,23
3320,default,block1,ballet,projective,1,3984,MC,28,MC,MC,NA,default,38,Yes,NA,Male,English,NA,24
3320,default,block1,owen,projective,1,8256,hear,29,hear,C,NA,default,38,Yes,NA,Male,English,NA,25
3320,default,block1,julian,projective,0,12856,suggest,30,suggest,C,NA,default,38,Yes,NA,Male,English,NA,26
3320,default,block2,julian,ai,1,10645,suggest,32,suggest,C,NA,default,38,Yes,NA,Male,English,NA,27
3320,default,block2,jayden,ai,1,6227,establish,33,establish,C,NA,default,38,Yes,NA,Male,English,NA,28
3320,default,block2,isabella,ai,1,3882,announce,34,announce,C,NA,default,38,Yes,NA,Male,English,NA,29
3320,default,block2,tony,ai,1,11387,be_right,35,be_right,C,NA,default,38,Yes,NA,Male,English,NA,30
3320,default,block2,josh,ai,1,4789,know,36,know,C,NA,default,38,Yes,NA,Male,English,NA,31
3320,default,block2,hat,ai,0,5568,MC,37,MC,MC,NA,default,38,Yes,NA,Male,English,NA,32
3320,default,block2,garage,ai,0.010000000000000009,4563,MC,38,MC,MC,NA,default,38,Yes,NA,Male,English,NA,33
3320,default,block2,danny,ai,1,4124,confirm,39,confirm,C,NA,default,38,Yes,NA,Male,English,NA,34
3320,default,block2,emma,ai,1,6506,think,40,think,C,NA,default,38,Yes,NA,Male,English,NA,35
3320,default,block2,zoe,ai,1,6466,acknowledge,41,acknowledge,C,NA,default,38,Yes,NA,Male,English,NA,36
3320,default,block2,emily,ai,1,3658,inform,42,inform,C,NA,default,38,Yes,NA,Male,English,NA,37
3320,default,block2,grace,ai,1,2819,pretend,43,pretend,C,NA,default,38,Yes,NA,Male,English,NA,38
3320,default,block2,kids,ai,0,4890,MC,44,MC,MC,NA,default,38,Yes,NA,Male,English,NA,39
3320,default,block2,ballet,ai,0,2650,MC,45,MC,MC,NA,default,38,Yes,NA,Male,English,NA,40
3320,default,block2,mary,ai,1,1999,prove,46,prove,C,NA,default,38,Yes,NA,Male,English,NA,41
3320,default,block2,olivia,ai,1,2352,discover,47,discover,C,NA,default,38,Yes,NA,Male,English,NA,42
3320,default,block2,josie,ai,1,2844,admit,48,admit,C,NA,default,38,Yes,NA,Male,English,NA,43
3320,default,block2,charley,ai,1,3653,reveal,49,reveal,C,NA,default,38,Yes,NA,Male,English,NA,44
3320,default,block2,owen,ai,1,2103,hear,50,hear,C,NA,default,38,Yes,NA,Male,English,NA,45
3320,default,block2,jon,ai,1,2577,see,51,see,C,NA,default,38,Yes,NA,Male,English,NA,46
3320,default,block2,frank,ai,1,2125,say,52,say,C,NA,default,38,Yes,NA,Male,English,NA,47
3320,default,block2,jackson,ai,1,2189,be_annoyed,53,be_annoyed,C,NA,default,38,Yes,NA,Male,English,NA,48
3320,default,block2,sophia,ai,1,2482,confess,54,confess,C,NA,default,38,Yes,NA,Male,English,NA,49
3320,default,block2,muffins,ai,0,2084,MC,55,MC,MC,NA,default,38,Yes,NA,Male,English,NA,50
3320,default,block2,mia,ai,1,2300,demonstrate,56,demonstrate,C,NA,default,38,Yes,NA,Male,English,NA,51
3320,default,block2,pizza,ai,0,3126,MC,57,MC,MC,NA,default,38,Yes,NA,Male,English,NA,52
3272,default,block1,isabella,projective,0.89,60204,demonstrate,5,demonstrate,C,NA,default,19,Yes,NA,Female,English,NA,1
3272,default,block1,olivia,projective,0.65,13398,say,6,say,C,NA,default,19,Yes,NA,Female,English,NA,2
3272,default,block1,julian,projective,0.23,19113,pretend,7,pretend,C,NA,default,19,Yes,NA,Female,English,NA,3
3272,default,block1,emily,projective,0.66,10073,hear,8,hear,C,NA,default,19,Yes,NA,Female,English,NA,4
3272,default,block1,mary,projective,0.61,8017,confirm,9,confirm,C,NA,default,19,Yes,NA,Female,English,NA,5
3272,default,block1,kids,projective,0.98,9472,MC,10,MC,MC,NA,default,19,Yes,NA,Female,English,NA,6
3272,default,block1,josh,projective,0.58,28604,reveal,11,reveal,C,NA,default,19,Yes,NA,Female,English,NA,7
3272,default,block1,josie,projective,0.74,35536,announce,12,announce,C,NA,default,19,Yes,NA,Female,English,NA,8
3272,default,block1,pizza,projective,1,9469,MC,13,MC,MC,NA,default,19,Yes,NA,Female,English,NA,9
3272,default,block1,charley,projective,0.96,9092,establish,14,establish,C,NA,default,19,Yes,NA,Female,English,NA,10
3272,default,block1,muffins,projective,0.97,16626,MC,15,MC,MC,NA,default,19,Yes,NA,Female,English,NA,11
3272,default,block1,grace,projective,0.41,53793,suggest,16,suggest,C,NA,default,19,Yes,NA,Female,English,NA,12
3272,default,block1,emma,projective,0.63,8164,be_right,17,be_right,C,NA,default,19,Yes,NA,Female,English,NA,13
3272,default,block1,owen,projective,0.49,19731,be_annoyed,18,be_annoyed,C,NA,default,19,Yes,NA,Female,English,NA,14
3272,default,block1,jon,projective,0.72,16436,admit,19,admit,C,NA,default,19,Yes,NA,Female,English,NA,15
3272,default,block1,hat,projective,0.99,66145,MC,20,MC,MC,NA,default,19,Yes,NA,Female,English,NA,16
3272,default,block1,danny,projective,0.87,30865,see,21,see,C,NA,default,19,Yes,NA,Female,English,NA,17
3272,default,block1,mia,projective,0.7,11842,acknowledge,22,acknowledge,C,NA,default,19,Yes,NA,Female,English,NA,18
3272,default,block1,jackson,projective,0.95,5248,discover,23,discover,C,NA,default,19,Yes,NA,Female,English,NA,19
3272,default,block1,frank,projective,0.97,9167,inform,24,inform,C,NA,default,19,Yes,NA,Female,English,NA,20
3272,default,block1,jayden,projective,0.95,18521,know,25,know,C,NA,default,19,Yes,NA,Female,English,NA,21
3272,default,block1,garage,projective,0.93,8367,MC,26,MC,MC,NA,default,19,Yes,NA,Female,English,NA,22
3272,default,block1,zoe,projective,0.97,7043,prove,27,prove,C,NA,default,19,Yes,NA,Female,English,NA,23
3272,default,block1,sophia,projective,0.88,7132,confess,28,confess,C,NA,default,19,Yes,NA,Female,English,NA,24
3272,default,block1,ballet,projective,0.86,16939,MC,29,MC,MC,NA,default,19,Yes,NA,Female,English,NA,25
3272,default,block1,tony,projective,0.19,5652,think,30,think,C,NA,default,19,Yes,NA,Female,English,NA,26
3272,default,block2,pizza,ai,0.06999999999999995,18035,MC,32,MC,MC,NA,default,19,Yes,NA,Female,English,NA,27
3272,default,block2,kids,ai,0.06999999999999995,7285,MC,33,MC,MC,NA,default,19,Yes,NA,Female,English,NA,28
3272,default,block2,charley,ai,0.14,12282,establish,34,establish,C,NA,default,19,Yes,NA,Female,English,NA,29
3272,default,block2,mary,ai,0.51,6893,confirm,35,confirm,C,NA,default,19,Yes,NA,Female,English,NA,30
3272,default,block2,owen,ai,0.74,9747,be_annoyed,36,be_annoyed,C,NA,default,19,Yes,NA,Female,English,NA,31
3272,default,block2,hat,ai,0.45999999999999996,6772,MC,37,MC,MC,NA,default,19,Yes,NA,Female,English,NA,32
3272,default,block2,danny,ai,0.55,9597,see,38,see,C,NA,default,19,Yes,NA,Female,English,NA,33
3272,default,block2,garage,ai,0.16000000000000003,14087,MC,39,MC,MC,NA,default,19,Yes,NA,Female,English,NA,34
3272,default,block2,julian,ai,0.4,6600,pretend,40,pretend,C,NA,default,19,Yes,NA,Female,English,NA,35
3272,default,block2,grace,ai,0.36,10329,suggest,41,suggest,C,NA,default,19,Yes,NA,Female,English,NA,36
3272,default,block2,emma,ai,0.12,9125,be_right,42,be_right,C,NA,default,19,Yes,NA,Female,English,NA,37
3272,default,block2,mia,ai,0.35,6531,acknowledge,43,acknowledge,C,NA,default,19,Yes,NA,Female,English,NA,38
3272,default,block2,josie,ai,0.54,8458,announce,44,announce,C,NA,default,19,Yes,NA,Female,English,NA,39
3272,default,block2,jackson,ai,0.62,6029,discover,45,discover,C,NA,default,19,Yes,NA,Female,English,NA,40
3272,default,block2,tony,ai,0.75,11234,think,46,think,C,NA,default,19,Yes,NA,Female,English,NA,41
3272,default,block2,jayden,ai,0.69,7511,know,47,know,C,NA,default,19,Yes,NA,Female,English,NA,42
3272,default,block2,isabella,ai,0.76,6763,demonstrate,48,demonstrate,C,NA,default,19,Yes,NA,Female,English,NA,43
3272,default,block2,olivia,ai,0.42000000000000004,9981,say,49,say,C,NA,default,19,Yes,NA,Female,English,NA,44
3272,default,block2,emily,ai,0.45999999999999996,6779,hear,50,hear,C,NA,default,19,Yes,NA,Female,English,NA,45
3272,default,block2,sophia,ai,0.75,18460,confess,51,confess,C,NA,default,19,Yes,NA,Female,English,NA,46
3272,default,block2,zoe,ai,0.73,6780,prove,52,prove,C,NA,default,19,Yes,NA,Female,English,NA,47
3272,default,block2,frank,ai,0.72,20212,inform,53,inform,C,NA,default,19,Yes,NA,Female,English,NA,48
3272,default,block2,josh,ai,0.48,8473,reveal,54,reveal,C,NA,default,19,Yes,NA,Female,English,NA,49
3272,default,block2,jon,ai,0.65,8207,admit,55,admit,C,NA,default,19,Yes,NA,Female,English,NA,50
3272,default,block2,ballet,ai,0.13,8164,MC,56,MC,MC,NA,default,19,Yes,NA,Female,English,NA,51
3272,default,block2,muffins,ai,0.16000000000000003,5968,MC,57,MC,MC,NA,default,19,Yes,NA,Female,English,NA,52
3314,default,block1,owen,projective,0.02,9687,confirm,5,confirm,C,NA,default,24,Yes,NA,Female,English,NA,1
3314,default,block1,pizza,projective,0.99,50170,MC,6,MC,MC,NA,default,24,Yes,NA,Female,English,NA,2
3314,default,block1,ballet,projective,0.97,7234,MC,7,MC,MC,NA,default,24,Yes,NA,Female,English,NA,3
3314,default,block1,sophia,projective,0.66,8551,discover,8,discover,C,NA,default,24,Yes,NA,Female,English,NA,4
3314,default,block1,grace,projective,0.19,9921,suggest,9,suggest,C,NA,default,24,Yes,NA,Female,English,NA,5
3314,default,block1,zoe,projective,0,11945,think,10,think,C,NA,default,24,Yes,NA,Female,English,NA,6
3314,default,block1,jon,projective,0.8,8000,announce,11,announce,C,NA,default,24,Yes,NA,Female,English,NA,7
3314,default,block1,hat,projective,0.99,4548,MC,12,MC,MC,NA,default,24,Yes,NA,Female,English,NA,8
3314,default,block1,emma,projective,0.83,8332,demonstrate,13,demonstrate,C,NA,default,24,Yes,NA,Female,English,NA,9
3314,default,block1,jackson,projective,0,7234,be_right,14,be_right,C,NA,default,24,Yes,NA,Female,English,NA,10
3314,default,block1,josie,projective,0.68,4827,hear,15,hear,C,NA,default,24,Yes,NA,Female,English,NA,11
3314,default,block1,emily,projective,0.27,4590,say,16,say,C,NA,default,24,Yes,NA,Female,English,NA,12
3314,default,block1,julian,projective,1,5902,admit,17,admit,C,NA,default,24,Yes,NA,Female,English,NA,13
3314,default,block1,isabella,projective,0.89,6646,establish,18,establish,C,NA,default,24,Yes,NA,Female,English,NA,14
3314,default,block1,frank,projective,0.99,4696,know,19,know,C,NA,default,24,Yes,NA,Female,English,NA,15
3314,default,block1,jayden,projective,0.95,402523,reveal,20,reveal,C,NA,default,24,Yes,NA,Female,English,NA,16
3314,default,block1,josh,projective,0.95,132329,acknowledge,21,acknowledge,C,NA,default,24,Yes,NA,Female,English,NA,17
3314,default,block1,mary,projective,0.94,4750,confess,22,confess,C,NA,default,24,Yes,NA,Female,English,NA,18
3314,default,block1,mia,projective,0.62,10488,prove,23,prove,C,NA,default,24,Yes,NA,Female,English,NA,19
3314,default,block1,charley,projective,0.97,5590,inform,24,inform,C,NA,default,24,Yes,NA,Female,English,NA,20
3314,default,block1,danny,projective,1,29448,see,25,see,C,NA,default,24,Yes,NA,Female,English,NA,21
3314,default,block1,tony,projective,0.38,7802,be_annoyed,26,be_annoyed,C,NA,default,24,Yes,NA,Female,English,NA,22
3314,default,block1,kids,projective,0.99,5850,MC,27,MC,MC,NA,default,24,Yes,NA,Female,English,NA,23
3314,default,block1,garage,projective,0.97,4809,MC,28,MC,MC,NA,default,24,Yes,NA,Female,English,NA,24
3314,default,block1,olivia,projective,0.01,4222,pretend,29,pretend,C,NA,default,24,Yes,NA,Female,English,NA,25
3314,default,block1,muffins,projective,0.98,6040,MC,30,MC,MC,NA,default,24,Yes,NA,Female,English,NA,26
3314,default,block2,frank,ai,0.44999999999999996,16050,know,32,know,C,NA,default,24,Yes,NA,Female,English,NA,27
3314,default,block2,pizza,ai,0.010000000000000009,5870,MC,33,MC,MC,NA,default,24,Yes,NA,Female,English,NA,28
3314,default,block2,josie,ai,0.030000000000000027,8566,hear,34,hear,C,NA,default,24,Yes,NA,Female,English,NA,29
3314,default,block2,kids,ai,0.010000000000000009,4832,MC,35,MC,MC,NA,default,24,Yes,NA,Female,English,NA,30
3314,default,block2,isabella,ai,0.14,6210,establish,36,establish,C,NA,default,24,Yes,NA,Female,English,NA,31
3314,default,block2,charley,ai,0.050000000000000044,7754,inform,37,inform,C,NA,default,24,Yes,NA,Female,English,NA,32
3314,default,block2,jon,ai,0.15000000000000002,7616,announce,38,announce,C,NA,default,24,Yes,NA,Female,English,NA,33
3314,default,block2,mary,ai,0.020000000000000018,3507,confess,39,confess,C,NA,default,24,Yes,NA,Female,English,NA,34
3314,default,block2,garage,ai,0.020000000000000018,2862,MC,40,MC,MC,NA,default,24,Yes,NA,Female,English,NA,35
3314,default,block2,julian,ai,0.040000000000000036,3837,admit,41,admit,C,NA,default,24,Yes,NA,Female,English,NA,36
3314,default,block2,danny,ai,0.020000000000000018,4977,see,42,see,C,NA,default,24,Yes,NA,Female,English,NA,37
3314,default,block2,emily,ai,0.21999999999999997,6252,say,43,say,C,NA,default,24,Yes,NA,Female,English,NA,38
3314,default,block2,zoe,ai,0.5800000000000001,6622,think,44,think,C,NA,default,24,Yes,NA,Female,English,NA,39
3314,default,block2,emma,ai,0.5800000000000001,13544,demonstrate,45,demonstrate,C,NA,default,24,Yes,NA,Female,English,NA,40
3314,default,block2,jackson,ai,0.44999999999999996,7410,be_right,46,be_right,C,NA,default,24,Yes,NA,Female,English,NA,41
3314,default,block2,olivia,ai,0.99,6846,pretend,47,pretend,C,NA,default,24,Yes,NA,Female,English,NA,42
3314,default,block2,hat,ai,0.030000000000000027,3480,MC,48,MC,MC,NA,default,24,Yes,NA,Female,English,NA,43
3314,default,block2,ballet,ai,0.020000000000000018,4506,MC,49,MC,MC,NA,default,24,Yes,NA,Female,English,NA,44
3314,default,block2,owen,ai,0.10999999999999999,4054,confirm,50,confirm,C,NA,default,24,Yes,NA,Female,English,NA,45
3314,default,block2,grace,ai,0.5800000000000001,5416,suggest,51,suggest,C,NA,default,24,Yes,NA,Female,English,NA,46
3314,default,block2,muffins,ai,0.020000000000000018,2926,MC,52,MC,MC,NA,default,24,Yes,NA,Female,English,NA,47
3314,default,block2,jayden,ai,0.020000000000000018,52739,reveal,53,reveal,C,NA,default,24,Yes,NA,Female,English,NA,48
